workerid,proliferate.condition,anagram,answer_correct,category,correct,id,interactions,internal_node_id,response,rt,set,setRun,stimulus,subject,time_elapsed,trial_index,trial_type,view_history,error
393,SetD2,,,,,,,0.0-0.0,,105202.0,,,,999,105211,0,instructions,"[{'page_index': 0, 'viewing_time': 5901}, {'page_index': 1, 'viewing_time': 21166}, {'page_index': 2, 'viewing_time': 24211}, {'page_index': 3, 'viewing_time': 16220}, {'page_index': 4, 'viewing_time': 17947}, {'page_index': 5, 'viewing_time': 19758}]",
393,SetD2,,,consent,,,,0.0-1.0,0,8120.0,,,"<p>By pressing continue below, I understand that I am consenting to participation in this research.</p>",999,113331,1,html-button-response,,
393,SetD2,,,,,,,0.0-2.0,,60106.0,,,,999,173438,2,instructions,"[{'page_index': 0, 'viewing_time': 5678}, {'page_index': 1, 'viewing_time': 7955}, {'page_index': 2, 'viewing_time': 6299}, {'page_index': 3, 'viewing_time': 6644}, {'page_index': 4, 'viewing_time': 5147}, {'page_index': 5, 'viewing_time': 7854}, {'page_index': 6, 'viewing_time': 9738}, {'page_index': 7, 'viewing_time': 8493}, {'page_index': 8, 'viewing_time': 2300}]",
393,SetD2,rapctiec,False,,practice,practice,,0.0-3.0,practice,16867.100000023842,practice,practice,,999,190307,3,gram,,
393,SetD2,,,,,,,0.0-4.0,,70474.0,,,,999,260782,4,instructions,"[{'page_index': 0, 'viewing_time': 60908}, {'page_index': 1, 'viewing_time': 6844}, {'page_index': 2, 'viewing_time': 2722}]",
393,SetD2,saequr,True,,['square'],540,,0.0-5.0-0.0,square,22871.90000000596,SetD,SetD2,,999,283655,5,gram,,
393,SetD2,goen,True,,['gone'],460,,0.0-5.0-0.1,gone,10524.5,SetD,SetD2,,999,294180,6,gram,,
393,SetD2,etdgbu,True,,['budget'],579,,0.0-5.0-0.2,budget,19362.0,SetD,SetD2,,999,313542,7,gram,,
393,SetD2,aestte,True,,['estate'],576,,0.0-5.0-0.3,estate,20315.80000001192,SetD,SetD2,,999,333859,8,gram,,
393,SetD2,ebsa,True,,['base'],598,,0.0-5.0-0.4,base,9000.100000023842,SetD,SetD2,,999,342860,9,gram,,
393,SetD2,rkpa,True,,['park'],484,,0.0-5.0-0.5,park,10067.80000001192,SetD,SetD2,,999,352928,10,gram,,
393,SetD2,oedc,True,,"['code', 'deco']",559,,0.0-5.0-0.6,code,14585.19999998808,SetD,SetD2,,999,367514,11,gram,,
393,SetD2,dpacle,True,,['placed'],516,,0.0-5.0-0.7,placed,16732.59999999404,SetD,SetD2,,999,384247,12,gram,,
393,SetD2,seme,True,,['seem'],571,,0.0-5.0-0.8,seem,14203.0,SetD,SetD2,,999,398451,13,gram,,
393,SetD2,telf,True,,"['left', 'felt']",514,,0.0-5.0-0.9,left,19521.39999997616,SetD,SetD2,,999,417973,14,gram,,
393,SetD2,geuh,True,,['huge'],580,,0.0-5.0-0.10,huge,15932.30000001192,SetD,SetD2,,999,433906,15,gram,,
393,SetD2,iahr,True,,['hair'],553,,0.0-5.0-0.11,hair,15865.70000001788,SetD,SetD2,,999,449772,16,gram,,
393,SetD2,eeipc,True,,['piece'],455,,0.0-5.0-0.12,piece,14885.19999998808,SetD,SetD2,,999,464658,17,gram,,
393,SetD2,opor,True,,['poor'],541,,0.0-5.0-0.13,poor,10297.0,SetD,SetD2,,999,474956,18,gram,,
393,SetD2,oaird,True,,"['radio', 'aroid']",500,,0.0-5.0-0.14,radio,17671.29999998212,SetD,SetD2,,999,492628,19,gram,,
393,SetD2,kcsot,True,,['stock'],575,,0.0-5.0-0.15,stock,15511.59999999404,SetD,SetD2,,999,508140,20,gram,,
393,SetD2,awsy,True,,"['sway', 'yaws', 'ways']",589,,0.0-5.0-0.16,ways,18585.20000001788,SetD,SetD2,,999,526726,21,gram,,
393,SetD2,htae,True,,"['thea', 'hate', 'heat']",526,,0.0-5.0-0.17,hate,13075.30000001192,SetD,SetD2,,999,539802,22,gram,,
393,SetD2,ekronb,True,,['broken'],477,,0.0-5.0-0.18,broken,16023.69999998808,SetD,SetD2,,999,555826,23,gram,,
393,SetD2,oerl,True,,"['lore', 'role']",481,,0.0-5.0-0.19,lore,16324.19999998808,SetD,SetD2,,999,572151,24,gram,,
393,SetD2,iegth,True,,['eight'],473,,0.0-5.0-0.20,eight,17591.80000001192,SetD,SetD2,,999,589743,25,gram,,
393,SetD2,forlo,True,,['floor'],560,,0.0-5.0-0.21,floor,12984.80000001192,SetD,SetD2,,999,602729,26,gram,,
393,SetD2,ufnny,True,,['funny'],476,,0.0-5.0-0.22,funny,11751.90000000596,SetD,SetD2,,999,614481,27,gram,,
393,SetD2,scephe,True,,['speech'],528,,0.0-5.0-0.23,speech,21031.59999999404,SetD,SetD2,,999,635514,28,gram,,
393,SetD2,eurrdm,False,,['murder'],498,,0.0-5.0-0.24,idk,18162.5,SetD,SetD2,,999,653677,29,gram,,
393,SetD2,slpupy,True,,['supply'],594,,0.0-5.0-0.25,supply,13925.5,SetD,SetD2,,999,667603,30,gram,,
393,SetD2,esva,True,,"['save', 'aves', 'vase']",493,,0.0-5.0-0.26,save,10713.59999999404,SetD,SetD2,,999,678317,31,gram,,
393,SetD2,buaml,True,,['album'],482,,0.0-5.0-0.27,album,13477.0,SetD,SetD2,,999,691795,32,gram,,
393,SetD2,rteinw,True,,"['twiner', 'winter']",474,,0.0-5.0-0.28,winter,14519.0,SetD,SetD2,,999,706315,33,gram,,
393,SetD2,ersvli,True,,"['silver', 'sliver']",582,,0.0-5.0-0.29,silver,15847.69999998808,SetD,SetD2,,999,722163,34,gram,,
393,SetD2,iuldb,True,,['build'],461,,0.0-5.0-0.30,build,13803.20000001788,SetD,SetD2,,999,735967,35,gram,,
393,SetD2,nsepd,True,,['spend'],533,,0.0-5.0-0.31,spend,12799.5,SetD,SetD2,,999,748767,36,gram,,
393,SetD2,caedvi,True,,['advice'],483,,0.0-5.0-0.32,advice,15799.59999999404,SetD,SetD2,,999,764568,37,gram,,
393,SetD2,aexrt,True,,"['taxer', 'extra']",518,,0.0-5.0-0.33,extra,15848.0,SetD,SetD2,,999,780416,38,gram,,
393,SetD2,nrob,True,,"['born', 'brno']",544,,0.0-5.0-0.34,born,13535.5,SetD,SetD2,,999,793952,39,gram,,
393,SetD2,nedoep,False,,['opened'],513,,0.0-5.0-0.35,idk,16180.59999999404,SetD,SetD2,,999,810133,40,gram,,
393,SetD2,setp,False,,"['pest', 'step']",508,,0.0-5.0-0.36,pets,14849.70000001788,SetD,SetD2,,999,824984,41,gram,,
393,SetD2,ayok,True,,['okay'],583,,0.0-5.0-0.37,okay,11403.69999998808,SetD,SetD2,,999,836388,42,gram,,
393,SetD2,irdnk,True,,['drink'],599,,0.0-5.0-0.38,drink,9735.5,SetD,SetD2,,999,846124,43,gram,,
393,SetD2,clnae,True,,"['lance', 'clean']",524,,0.0-5.0-0.39,clean,10498.399999976158,SetD,SetD2,,999,856623,44,gram,,
393,SetD2,mraed,True,,"['dream', 'armed']",596,,0.0-5.0-0.40,dream,14041.5,SetD,SetD2,,999,870666,45,gram,,
393,SetD2,dpsear,True,,['spread'],588,,0.0-5.0-0.41,spread,34338.0,SetD,SetD2,,999,905004,46,gram,,
393,SetD2,cssor,True,,['cross'],506,,0.0-5.0-0.42,cross,11808.19999998808,SetD,SetD2,,999,916813,47,gram,,
393,SetD2,eencsr,True,,"['screen', 'censer']",525,,0.0-5.0-0.43,screen,18497.90000000596,SetD,SetD2,,999,935311,48,gram,,
393,SetD2,rtea,True,,"['rate', 'tare', 'tera', 'tear']",496,,0.0-5.0-0.44,rate,10569.29999998212,SetD,SetD2,,999,945881,49,gram,,
393,SetD2,iameg,True,,['image'],563,,0.0-5.0-0.45,image,13606.79999998212,SetD,SetD2,,999,959489,50,gram,,
393,SetD2,ndiai,False,,['india'],458,,0.0-5.0-0.46,idk,23281.5,SetD,SetD2,,999,982770,51,gram,,
393,SetD2,,,,,,"[{""event"":""blur"",""trial"":0,""time"":11248},{""event"":""focus"",""trial"":0,""time"":12726},{""event"":""blur"",""trial"":16,""time"":445168},{""event"":""focus"",""trial"":16,""time"":445169},{""event"":""blur"",""trial"":28,""time"":630628},{""event"":""focus"",""trial"":28,""time"":630629},{""event"":""blur"",""trial"":41,""time"":813680},{""event"":""focus"",""trial"":41,""time"":813680}]",0.0-5.0-0.47,,,,,,999,993694,52,gram,,
377,SetD2,,,,,,,0.0-0.0,,105140.0,,,,999,105198,0,instructions,"[{'page_index': 0, 'viewing_time': 3164}, {'page_index': 1, 'viewing_time': 4278}, {'page_index': 2, 'viewing_time': 33063}, {'page_index': 3, 'viewing_time': 61972}, {'page_index': 4, 'viewing_time': 1353}, {'page_index': 5, 'viewing_time': 1310}]",
377,SetD2,,,consent,,,,0.0-1.0,0,1919.0,,,"<p>By pressing continue below, I understand that I am consenting to participation in this research.</p>",999,107118,1,html-button-response,,
377,SetD2,,,,,,,0.0-2.0,,29047.0,,,,999,136165,2,instructions,"[{'page_index': 0, 'viewing_time': 2028}, {'page_index': 1, 'viewing_time': 1453}, {'page_index': 2, 'viewing_time': 1659}, {'page_index': 3, 'viewing_time': 6783}, {'page_index': 4, 'viewing_time': 2526}, {'page_index': 5, 'viewing_time': 3257}, {'page_index': 6, 'viewing_time': 3520}, {'page_index': 7, 'viewing_time': 6956}, {'page_index': 8, 'viewing_time': 865}]",
377,SetD2,rapctiec,False,,practice,practice,,0.0-3.0,practice,6413.299999998882,practice,practice,,999,142580,3,gram,,
377,SetD2,,,,,,,0.0-4.0,,79996.0,,,,999,222576,4,instructions,"[{'page_index': 0, 'viewing_time': 2172}, {'page_index': 1, 'viewing_time': 75332}, {'page_index': 2, 'viewing_time': 2492}]",
377,SetD2,saequr,False,,['square'],540,,0.0-5.0-0.0,idk,23090.800000000745,SetD,SetD2,,999,245668,5,gram,,
377,SetD2,goen,True,,['gone'],460,,0.0-5.0-0.1,gone,2816.199999999255,SetD,SetD2,,999,248485,6,gram,,
377,SetD2,etdgbu,False,,['budget'],579,,0.0-5.0-0.2,idk,10268.400000000373,SetD,SetD2,,999,258754,7,gram,,
377,SetD2,aestte,False,,['estate'],576,,0.0-5.0-0.3,attest,19726.199999999255,SetD,SetD2,,999,278481,8,gram,,
377,SetD2,ebsa,False,,['base'],598,,0.0-5.0-0.4,idk,15106.5,SetD,SetD2,,999,293588,9,gram,,
377,SetD2,rkpa,True,,['park'],484,,0.0-5.0-0.5,park,2036.2999999988824,SetD,SetD2,,999,295625,10,gram,,
377,SetD2,oedc,True,,"['code', 'deco']",559,,0.0-5.0-0.6,code,4465.5,SetD,SetD2,,999,300092,11,gram,,
377,SetD2,dpacle,False,,['placed'],516,,0.0-5.0-0.7,idk,16193.0,SetD,SetD2,,999,316285,12,gram,,
377,SetD2,seme,True,,['seem'],571,,0.0-5.0-0.8,seem,5875.4000000003725,SetD,SetD2,,999,322161,13,gram,,
377,SetD2,telf,True,,"['left', 'felt']",514,,0.0-5.0-0.9,felt,4963.5,SetD,SetD2,,999,327125,14,gram,,
377,SetD2,geuh,False,,['huge'],580,,0.0-5.0-0.10,idk,61126.29999999888,SetD,SetD2,,999,388252,15,gram,,
377,SetD2,iahr,True,,['hair'],553,,0.0-5.0-0.11,hair,26154.400000000373,SetD,SetD2,,999,414407,16,gram,,
377,SetD2,eeipc,True,,['piece'],455,,0.0-5.0-0.12,piece,5059.300000000745,SetD,SetD2,,999,419467,17,gram,,
377,SetD2,opor,True,,['poor'],541,,0.0-5.0-0.13,poor,6111.5999999996275,SetD,SetD2,,999,425579,18,gram,,
377,SetD2,oaird,False,,"['radio', 'aroid']",500,,0.0-5.0-0.14,idk,9594.400000000373,SetD,SetD2,,999,435174,19,gram,,
377,SetD2,kcsot,False,,['stock'],575,,0.0-5.0-0.15,idk,13999.5,SetD,SetD2,,999,449174,20,gram,,
377,SetD2,awsy,True,,"['sway', 'yaws', 'ways']",589,,0.0-5.0-0.16,sway,3375.300000000745,SetD,SetD2,,999,452550,21,gram,,
377,SetD2,htae,True,,"['thea', 'hate', 'heat']",526,,0.0-5.0-0.17,hate,2144.4000000003725,SetD,SetD2,,999,454695,22,gram,,
377,SetD2,ekronb,True,,['broken'],477,,0.0-5.0-0.18,broken,2940.4000000003725,SetD,SetD2,,999,457636,23,gram,,
377,SetD2,oerl,False,,"['lore', 'role']",481,,0.0-5.0-0.19,idk,21240.599999999627,SetD,SetD2,,999,478877,24,gram,,
377,SetD2,iegth,True,,['eight'],473,,0.0-5.0-0.20,eight,19368.5,SetD,SetD2,,999,498246,25,gram,,
377,SetD2,forlo,False,,['floor'],560,,0.0-5.0-0.21,idk,13172.400000000373,SetD,SetD2,,999,511419,26,gram,,
377,SetD2,ufnny,True,,['funny'],476,,0.0-5.0-0.22,funny,1999.4000000003723,SetD,SetD2,,999,513419,27,gram,,
377,SetD2,scephe,False,,['speech'],528,,0.0-5.0-0.23,idk,7228.5,SetD,SetD2,,999,520648,28,gram,,
377,SetD2,eurrdm,True,,['murder'],498,,0.0-5.0-0.24,murder,6768.5,SetD,SetD2,,999,527417,29,gram,,
377,SetD2,slpupy,False,,['supply'],594,,0.0-5.0-0.25,idk,12812.400000000373,SetD,SetD2,,999,540230,30,gram,,
377,SetD2,esva,True,,"['save', 'aves', 'vase']",493,,0.0-5.0-0.26,save,2253.5,SetD,SetD2,,999,542484,31,gram,,
377,SetD2,buaml,False,,['album'],482,,0.0-5.0-0.27,idk,18756.400000000373,SetD,SetD2,,999,561241,32,gram,,
377,SetD2,rteinw,False,,"['twiner', 'winter']",474,,0.0-5.0-0.28,idk,8207.300000000745,SetD,SetD2,,999,569449,33,gram,,
377,SetD2,ersvli,False,,"['silver', 'sliver']",582,,0.0-5.0-0.29,livers,6280.5999999996275,SetD,SetD2,,999,575730,34,gram,,
377,SetD2,iuldb,False,,['build'],461,,0.0-5.0-0.30,idk,13440.300000000743,SetD,SetD2,,999,589171,35,gram,,
377,SetD2,nsepd,False,,['spend'],533,,0.0-5.0-0.31,idk,29061.099999999627,SetD,SetD2,,999,618233,36,gram,,
377,SetD2,caedvi,False,,['advice'],483,,0.0-5.0-0.32,idk,8271.5,SetD,SetD2,,999,626505,37,gram,,
377,SetD2,aexrt,False,,"['taxer', 'extra']",518,,0.0-5.0-0.33,idk,9508.60000000149,SetD,SetD2,,999,636014,38,gram,,
377,SetD2,nrob,False,,"['born', 'brno']",544,,0.0-5.0-0.34,idk,30184.599999999627,SetD,SetD2,,999,666199,39,gram,,
377,SetD2,nedoep,False,,['opened'],513,,0.0-5.0-0.35,idk,22247.400000000373,SetD,SetD2,,999,688447,40,gram,,
377,SetD2,setp,False,,"['pest', 'step']",508,,0.0-5.0-0.36,pets,4747.5999999996275,SetD,SetD2,,999,693195,41,gram,,
377,SetD2,ayok,False,,['okay'],583,,0.0-5.0-0.37,idk,22962.400000000373,SetD,SetD2,,999,716158,42,gram,,
377,SetD2,irdnk,True,,['drink'],599,,0.0-5.0-0.38,drink,7022.5,SetD,SetD2,,999,723181,43,gram,,
377,SetD2,clnae,True,,"['lance', 'clean']",524,,0.0-5.0-0.39,clean,3756.199999999255,SetD,SetD2,,999,726937,44,gram,,
377,SetD2,mraed,True,,"['dream', 'armed']",596,,0.0-5.0-0.40,dream,4277.4000000003725,SetD,SetD2,,999,731215,45,gram,,
377,SetD2,dpsear,False,,['spread'],588,,0.0-5.0-0.41,idk,34275.29999999888,SetD,SetD2,,999,765491,46,gram,,
377,SetD2,cssor,False,,['cross'],506,,0.0-5.0-0.42,idk,6890.799999998882,SetD,SetD2,,999,772382,47,gram,,
377,SetD2,eencsr,False,,"['screen', 'censer']",525,,0.0-5.0-0.43,idk,6689.299999998882,SetD,SetD2,,999,779072,48,gram,,
377,SetD2,rtea,False,,"['rate', 'tare', 'tera', 'tear']",496,,0.0-5.0-0.44,idk,17132.700000001118,SetD,SetD2,,999,796206,49,gram,,
377,SetD2,iameg,True,,['image'],563,,0.0-5.0-0.45,image,2911.5999999996275,SetD,SetD2,,999,799118,50,gram,,
377,SetD2,ndiai,True,,['india'],458,,0.0-5.0-0.46,india,11301.400000000373,SetD,SetD2,,999,810420,51,gram,,
377,SetD2,ibll,True,,['bill'],490,,0.0-5.0-0.47,bill,2512.0999999996275,SetD,SetD2,,999,812933,52,gram,,
377,SetD2,sten,False,,"['sent', 'nest']",475,,0.0-5.0-0.48,tens,2446.699999999255,SetD,SetD2,,999,815380,53,gram,,
377,SetD2,omevd,False,,['moved'],494,,0.0-5.0-0.49,idk,11509.699999999257,SetD,SetD2,,999,826890,54,gram,,
377,SetD2,,,resting,,,,0.0-6.0,0,69003.0,,,<p>Great job! You have completed the first block of trials.</p><p>Take a short break before continuing to the next block.</p>,999,895893,55,html-button-response,,
377,SetD2,eblu,True,,"['bleu', 'blue']",502,,0.0-7.0-0.0,blue,3445.5,SetD,SetD2,,999,899339,56,gram,,
377,SetD2,regtta,False,,['target'],573,,0.0-7.0-0.1,idk,12061.299999998882,SetD,SetD2,,999,911401,57,gram,,
377,SetD2,tnari,True,,['train'],542,,0.0-7.0-0.2,train,7401.5,SetD,SetD2,,999,918803,58,gram,,
377,SetD2,ates,False,,"['seta', 'east', 'seat']",472,,0.0-7.0-0.3,idk,12462.5,SetD,SetD2,,999,931266,59,gram,,
377,SetD2,ejudg,True,,['judge'],554,,0.0-7.0-0.4,judge,2130.5,SetD,SetD2,,999,933397,60,gram,,
377,SetD2,arnib,False,,"['brain', 'bairn']",566,,0.0-7.0-0.5,idk,7800.4000000003725,SetD,SetD2,,999,941198,61,gram,,
377,SetD2,hcear,False,,['reach'],557,,0.0-7.0-0.6,idk,7125.5999999996275,SetD,SetD2,,999,948324,62,gram,,
377,SetD2,ctenio,False,,['notice'],468,,0.0-7.0-0.7,idk,6384.5,SetD,SetD2,,999,954709,63,gram,,
377,SetD2,inwowd,True,,['window'],600,,0.0-7.0-0.8,window,6171.5999999996275,SetD,SetD2,,999,960882,64,gram,,
377,SetD2,sonrpi,True,,['prison'],597,,0.0-7.0-0.9,prison,6257.39999999851,SetD,SetD2,,999,967140,65,gram,,
377,SetD2,ialcm,False,,['claim'],548,,0.0-7.0-0.10,idk,14020.300000000743,SetD,SetD2,,999,981161,66,gram,,
377,SetD2,afse,True,,['safe'],574,,0.0-7.0-0.11,safe,4682.699999999255,SetD,SetD2,,999,985844,67,gram,,
377,SetD2,acgitn,False,,['acting'],567,,0.0-7.0-0.12,idk,11174.199999999257,SetD,SetD2,,999,997019,68,gram,,
377,SetD2,ardng,True,,['grand'],587,,0.0-7.0-0.13,grand,13836.599999999627,SetD,SetD2,,999,1010856,69,gram,,
377,SetD2,lehl,True,,['hell'],532,,0.0-7.0-0.14,hell,2816.5,SetD,SetD2,,999,1013673,70,gram,,
377,SetD2,ahyev,False,,['heavy'],536,,0.0-7.0-0.15,idk,8925.5,SetD,SetD2,,999,1022599,71,gram,,
377,SetD2,enmdad,False,,"['demand', 'madden', 'damned']",549,,0.0-7.0-0.16,idk,11879.10000000149,SetD,SetD2,,999,1034478,72,gram,,
377,SetD2,cchao,False,,['coach'],539,,0.0-7.0-0.17,idk,17901.699999999255,SetD,SetD2,,999,1052381,73,gram,,
377,SetD2,krcta,False,,['track'],479,,0.0-7.0-0.18,idk,14951.400000000373,SetD,SetD2,,999,1067333,74,gram,,
377,SetD2,olco,False,,['cool'],487,,0.0-7.0-0.19,loco,13588.5,SetD,SetD2,,999,1080922,75,gram,,
377,SetD2,ycgane,False,,"['cagney', 'agency']",492,,0.0-7.0-0.20,idk,3221.4000000003725,SetD,SetD2,,999,1084144,76,gram,,
377,SetD2,myra,False,,"['army', 'mary']",592,,0.0-7.0-0.21,idk,6842.4000000003725,SetD,SetD2,,999,1090987,77,gram,,
377,SetD2,eeffoc,True,,['coffee'],504,,0.0-7.0-0.22,coffee,2985.5999999996275,SetD,SetD2,,999,1093973,78,gram,,
377,SetD2,mriaen,False,,"['mainer', 'remain', 'marine']",564,,0.0-7.0-0.23,idk,10611.199999999257,SetD,SetD2,,999,1104585,79,gram,,
377,SetD2,othel,False,,['hotel'],551,,0.0-7.0-0.24,idk,17223.300000000745,SetD,SetD2,,999,1121809,80,gram,,
377,SetD2,dlgo,True,,['gold'],463,,0.0-7.0-0.25,gold,4483.9000000003725,SetD,SetD2,,999,1126293,81,gram,,
377,SetD2,echab,False,,['beach'],581,,0.0-7.0-0.26,idk,8989.300000000745,SetD,SetD2,,999,1135283,82,gram,,
377,SetD2,sols,True,,['loss'],577,,0.0-7.0-0.27,loss,14071.400000000373,SetD,SetD2,,999,1149355,83,gram,,
377,SetD2,nedac,False,,"['dance', 'acned']",578,,0.0-7.0-0.28,idk,5518.5999999996275,SetD,SetD2,,999,1154874,84,gram,,
377,SetD2,scouf,True,,['focus'],515,,0.0-7.0-0.29,focus,8790.0,SetD,SetD2,,999,1163664,85,gram,,
377,SetD2,galo,True,,['goal'],586,,0.0-7.0-0.30,goal,13135.800000000743,SetD,SetD2,,999,1176801,86,gram,,
377,SetD2,olwla,False,,['allow'],503,,0.0-7.0-0.31,idk,18336.20000000112,SetD,SetD2,,999,1195137,87,gram,,
377,SetD2,levod,False,,['loved'],509,,0.0-7.0-0.32,idk,14013.700000001118,SetD,SetD2,,999,1209152,88,gram,,
377,SetD2,bwron,True,,['brown'],491,,0.0-7.0-0.33,brown,2433.2000000011176,SetD,SetD2,,999,1211586,89,gram,,
377,SetD2,sepka,False,,['speak'],467,,0.0-7.0-0.34,idk,2960.4000000003725,SetD,SetD2,,999,1214546,90,gram,,
377,SetD2,mlaian,False,,"['animal', 'malian', 'lamina', 'manila']",585,,0.0-7.0-0.35,idk,8397.699999999255,SetD,SetD2,,999,1222945,91,gram,,
377,SetD2,iatonn,False,,"['anoint', 'nation']",486,,0.0-7.0-0.36,idk,4046.5,SetD,SetD2,,999,1226992,92,gram,,
377,SetD2,sdiaer,False,,['raised'],543,,0.0-7.0-0.37,idk,11916.5,SetD,SetD2,,999,1238908,93,gram,,
377,SetD2,eoytrh,False,,['theory'],480,,0.0-7.0-0.38,idk,4935.4000000003725,SetD,SetD2,,999,1243844,94,gram,,
377,SetD2,yhhgli,False,,['highly'],471,,0.0-7.0-0.39,idk,3849.2999999988824,SetD,SetD2,,999,1247694,95,gram,,
377,SetD2,hisnif,False,,['finish'],453,,0.0-7.0-0.40,idk,5497.700000001118,SetD,SetD2,,999,1253193,96,gram,,
377,SetD2,dnma,True,,['damn'],538,,0.0-7.0-0.41,damn,12852.5,SetD,SetD2,,999,1266045,97,gram,,
377,SetD2,hswi,True,,['wish'],457,,0.0-7.0-0.42,wish,5115.5,SetD,SetD2,,999,1271161,98,gram,,
377,SetD2,bnak,False,,['bank'],478,,0.0-7.0-0.43,idk,8737.599999999627,SetD,SetD2,,999,1279899,99,gram,,
377,SetD2,gpea,False,,"['page', 'gape']",520,,0.0-7.0-0.44,idk,17528.400000000373,SetD,SetD2,,999,1297428,100,gram,,
377,SetD2,uhor,True,,['hour'],454,,0.0-7.0-0.45,hour,3119.300000000745,SetD,SetD2,,999,1300548,101,gram,,
377,SetD2,ikcp,True,,['pick'],550,,0.0-7.0-0.46,pick,2794.4000000003725,SetD,SetD2,,999,1303343,102,gram,,
377,SetD2,oroctd,True,,['doctor'],465,,0.0-7.0-0.47,doctor,8230.5,SetD,SetD2,,999,1311574,103,gram,,
377,SetD2,orets,False,,['store'],488,,0.0-7.0-0.48,idk,11286.5,SetD,SetD2,,999,1322861,104,gram,,
377,SetD2,odro,True,,['door'],556,,0.0-7.0-0.49,door,3921.5,SetD,SetD2,,999,1326784,105,gram,,
377,SetD2,,,resting,,,,0.0-8.0,0,103337.0,,,<p>Great job! You have completed the second block of trials.</p><p>Take a short break before continuing to the final block.</p>,999,1430121,106,html-button-response,,
377,SetD2,ocseho,False,,['choose'],456,,0.0-9.0-0.0,idk,7305.5,SetD,SetD2,,999,1437427,107,gram,,
377,SetD2,isvit,True,,"['visit', 'vitis']",452,,0.0-9.0-0.1,visit,2411.2999999988824,SetD,SetD2,,999,1439839,108,gram,,
377,SetD2,luyj,True,,['july'],469,,0.0-9.0-0.2,july,2882.5999999996275,SetD,SetD2,,999,1442722,109,gram,,
377,SetD2,ezsi,True,,['size'],505,,0.0-9.0-0.3,size,3771.5,SetD,SetD2,,999,1446494,110,gram,,
377,SetD2,trufoh,False,,['fourth'],558,,0.0-9.0-0.4,idk,2852.199999999255,SetD,SetD2,,999,1449347,111,gram,,
377,SetD2,kcuqi,True,,['quick'],521,,0.0-9.0-0.5,quick,4712.60000000149,SetD,SetD2,,999,1454060,112,gram,,
377,SetD2,wsort,True,,['worst'],569,,0.0-9.0-0.6,worst,3150.199999999255,SetD,SetD2,,999,1457211,113,gram,,
377,SetD2,eecsn,True,,"['cense', 'scene']",527,,0.0-9.0-0.7,scene,7530.4000000003725,SetD,SetD2,,999,1464742,114,gram,,
377,SetD2,sole,True,,"['sloe', 'lose', 'sole']",568,,0.0-9.0-0.8,sole,21253.599999999627,SetD,SetD2,,999,1485996,115,gram,,
377,SetD2,lfal,True,,['fall'],511,,0.0-9.0-0.9,fall,2144.39999999851,SetD,SetD2,,999,1488141,116,gram,,
377,SetD2,klwa,True,,['walk'],547,,0.0-9.0-0.10,walk,4401.700000001118,SetD,SetD2,,999,1492543,117,gram,,
377,SetD2,vteo,True,,"['vote', 'veto']",523,,0.0-9.0-0.11,veto,8197.299999998882,SetD,SetD2,,999,1500741,118,gram,,
377,SetD2,ommyer,False,,['memory'],591,,0.0-9.0-0.12,idk,5756.39999999851,SetD,SetD2,,999,1506498,119,gram,,
377,SetD2,psdee,True,,['speed'],512,,0.0-9.0-0.13,speed,4468.5,SetD,SetD2,,999,1510967,120,gram,,
377,SetD2,ngis,True,,"['sing', 'sign']",562,,0.0-9.0-0.14,sign,4856.4000000003725,SetD,SetD2,,999,1515824,121,gram,,
377,SetD2,recmaa,False,,['camera'],489,,0.0-9.0-0.15,idk,4129.5,SetD,SetD2,,999,1519954,122,gram,,
377,SetD2,ndse,True,,['send'],529,,0.0-9.0-0.16,send,2316.39999999851,SetD,SetD2,,999,1522271,123,gram,,
377,SetD2,fsta,True,,['fast'],499,,0.0-9.0-0.17,fast,5958.5,SetD,SetD2,,999,1528230,124,gram,,
377,SetD2,reca,True,,"['acer', 'care', 'race', 'acre']",565,,0.0-9.0-0.18,care,8594.39999999851,SetD,SetD2,,999,1536825,125,gram,,
377,SetD2,eacep,True,,['peace'],485,,0.0-9.0-0.19,peace,2152.4000000003725,SetD,SetD2,,999,1538978,126,gram,,
377,SetD2,ecfdor,False,,['forced'],561,,0.0-9.0-0.20,idk,3783.300000000745,SetD,SetD2,,999,1542762,127,gram,,
377,SetD2,tsewe,True,,['sweet'],590,,0.0-9.0-0.21,sweet,2912.699999999255,SetD,SetD2,,999,1545675,128,gram,,
377,SetD2,lsueax,False,,['sexual'],570,,0.0-9.0-0.22,idk,3911.400000000373,SetD,SetD2,,999,1549587,129,gram,,
377,SetD2,gdaeam,False,,"['dagame', 'damage']",462,,0.0-9.0-0.23,idk,3869.5,SetD,SetD2,,999,1553457,130,gram,,
377,SetD2,lrod,False,,['lord'],535,,0.0-9.0-0.24,idk,14338.5,SetD,SetD2,,999,1567796,131,gram,,
377,SetD2,dcoesl,False,,['closed'],459,,0.0-9.0-0.25,idk,5260.60000000149,SetD,SetD2,,999,1573057,132,gram,,
377,SetD2,omtbto,False,,['bottom'],537,,0.0-9.0-0.26,idk,8123.199999999255,SetD,SetD2,,999,1581181,133,gram,,
377,SetD2,tlgifh,True,,['flight'],501,,0.0-9.0-0.27,flight,12664.699999999257,SetD,SetD2,,999,1593846,134,gram,,
377,SetD2,dpee,True,,['deep'],595,,0.0-9.0-0.28,deep,3662.5,SetD,SetD2,,999,1597510,135,gram,,
377,SetD2,wietr,False,,['write'],470,,0.0-9.0-0.29,idk,4631.4000000003725,SetD,SetD2,,999,1602141,136,gram,,
377,SetD2,praaep,False,,['appear'],531,,0.0-9.0-0.30,idk,4826.5,SetD,SetD2,,999,1606968,137,gram,,
377,SetD2,coorl,True,,['color'],584,,0.0-9.0-0.31,color,4113.300000000745,SetD,SetD2,,999,1611082,138,gram,,
377,SetD2,edsign,True,,"['signed', 'design']",519,,0.0-9.0-0.32,design,1899.7999999988824,SetD,SetD2,,999,1612982,139,gram,,
377,SetD2,thuco,False,,"['touch', 'couth']",593,,0.0-9.0-0.33,idk,6692.200000001118,SetD,SetD2,,999,1619675,140,gram,,
377,SetD2,itagen,False,,['eating'],522,,0.0-9.0-0.34,idk,3764.699999999255,SetD,SetD2,,999,1623440,141,gram,,
377,SetD2,hadae,False,,['ahead'],497,,0.0-9.0-0.35,idk,6648.5999999996275,SetD,SetD2,,999,1630089,142,gram,,
377,SetD2,lacatu,False,,['actual'],507,,0.0-9.0-0.36,idk,15688.300000000743,SetD,SetD2,,999,1645778,143,gram,,
377,SetD2,raeeg,False,,"['agree', 'eager', 'gerea']",530,,0.0-9.0-0.37,idk,6213.699999999255,SetD,SetD2,,999,1651992,144,gram,,
377,SetD2,sutsat,False,,['status'],495,,0.0-9.0-0.38,idk,6386.699999999255,SetD,SetD2,,999,1658379,145,gram,,
377,SetD2,tscos,False,,"['scots', 'costs']",545,,0.0-9.0-0.39,idk,11629.400000000373,SetD,SetD2,,999,1670009,146,gram,,
377,SetD2,rtsa,False,,['star'],451,,0.0-9.0-0.40,idk,15149.800000000743,SetD,SetD2,,999,1685159,147,gram,,
377,SetD2,civli,True,,['civil'],572,,0.0-9.0-0.41,civil,3631.5,SetD,SetD2,,999,1688791,148,gram,,
377,SetD2,ctapec,False,,['accept'],534,,0.0-9.0-0.42,idk,4176.300000000745,SetD,SetD2,,999,1692968,149,gram,,
377,SetD2,enieng,True,,['engine'],552,,0.0-9.0-0.43,engine,5893.800000000745,SetD,SetD2,,999,1698862,150,gram,,
377,SetD2,eegadr,False,,"['dragee', 'geared', 'agreed']",546,,0.0-9.0-0.44,idk,5868.4000000003725,SetD,SetD2,,999,1704731,151,gram,,
377,SetD2,aidp,False,,['paid'],517,,0.0-9.0-0.45,idk,3850.400000000373,SetD,SetD2,,999,1708582,152,gram,,
377,SetD2,gikn,True,,['king'],466,,0.0-9.0-0.46,king,11752.599999999627,SetD,SetD2,,999,1720335,153,gram,,
377,SetD2,nemlat,False,,"['mental', 'mantel', 'lament', 'mantle']",555,,0.0-9.0-0.47,idk,7362.5,SetD,SetD2,,999,1727698,154,gram,,
377,SetD2,ielmob,False,,['mobile'],510,,0.0-9.0-0.48,idk,4394.4000000003725,SetD,SetD2,,999,1732093,155,gram,,
377,SetD2,errvi,True,,['river'],464,,0.0-9.0-0.49,river,16216.5,SetD,SetD2,,999,1748310,156,gram,,
377,SetD2,,,,,,,0.0-11.0,enter,7314.0,,,<p>Thank you for participating! You scored 44.00 percent correct!</p>,999,1812419,158,html-keyboard-response,,
377,SetD2,,,,,,"[{""event"":""blur"",""trial"":16,""time"":406490},{""event"":""focus"",""trial"":16,""time"":407052},{""event"":""blur"",""trial"":35,""time"":587773},{""event"":""focus"",""trial"":35,""time"":587885},{""event"":""blur"",""trial"":47,""time"":768730},{""event"":""focus"",""trial"":47,""time"":768820},{""event"":""blur"",""trial"":75,""time"":1077124},{""event"":""focus"",""trial"":75,""time"":1077214},{""event"":""blur"",""trial"":97,""time"":1258064},{""event"":""focus"",""trial"":97,""time"":1258153},{""event"":""blur"",""trial"":138,""time"":1610272},{""event"":""focus"",""trial"":138,""time"":1610362},{""event"":""blur"",""trial"":157,""time"":1752296},{""event"":""focus"",""trial"":157,""time"":1753863},{""event"":""blur"",""trial"":157,""time"":1764097},{""event"":""focus"",""trial"":157,""time"":1769182},{""event"":""blur"",""trial"":157,""time"":1792306},{""event"":""focus"",""trial"":157,""time"":1792951}]",0.0-12.0,,4969.0,,,,999,1817388,159,instructions,"[{'page_index': 0, 'viewing_time': 1840}, {'page_index': 1, 'viewing_time': 3129}]",
392,SetC3,,,,,,,0.0-0.0,,19169.0,,,,999,19178,0,instructions,"[{'page_index': 0, 'viewing_time': 1752}, {'page_index': 1, 'viewing_time': 1800}, {'page_index': 2, 'viewing_time': 5899}, {'page_index': 3, 'viewing_time': 6951}, {'page_index': 4, 'viewing_time': 1433}, {'page_index': 5, 'viewing_time': 1334}]",
392,SetC3,,,consent,,,,0.0-1.0,0,1197.0,,,"<p>By pressing continue below, I understand that I am consenting to participation in this research.</p>",999,20378,1,html-button-response,,
392,SetC3,,,,,,,0.0-2.0,,41898.0,,,,999,62277,2,instructions,"[{'page_index': 0, 'viewing_time': 3548}, {'page_index': 1, 'viewing_time': 5983}, {'page_index': 2, 'viewing_time': 1833}, {'page_index': 3, 'viewing_time': 5300}, {'page_index': 4, 'viewing_time': 4450}, {'page_index': 5, 'viewing_time': 4501}, {'page_index': 6, 'viewing_time': 7233}, {'page_index': 7, 'viewing_time': 7067}, {'page_index': 8, 'viewing_time': 1984}]",
392,SetC3,rapctiec,False,,practice,practice,,0.0-3.0,practice,4591.100000023842,practice,practice,,999,66871,3,gram,,
392,SetC3,,,,,,,0.0-4.0,,10138.0,,,,999,77010,4,instructions,"[{'page_index': 0, 'viewing_time': 1904}, {'page_index': 1, 'viewing_time': 6500}, {'page_index': 2, 'viewing_time': 1733}]",
392,SetC3,anurte,False,,['nature'],354,,0.0-5.0-0.0,return,4905.800000011921,SetC,SetC3,,999,81917,5,gram,,
392,SetC3,vetalr,False,,['travel'],342,,0.0-5.0-0.1,idk,29589.60000002384,SetC,SetC3,,999,111509,6,gram,,
392,SetC3,eecptx,False,,['expect'],333,,0.0-5.0-0.2,except,6814.699999988079,SetC,SetC3,,999,118325,7,gram,,
392,SetC3,atle,True,,"['tael', 'teal', 'late']",322,,0.0-5.0-0.3,late,1814.300000011921,SetC,SetC3,,999,120141,8,gram,,
392,SetC3,atrohu,False,,['author'],390,,0.0-5.0-0.4,idk,23023.10000002384,SetC,SetC3,,999,143165,9,gram,,
392,SetC3,enrla,True,,['learn'],320,,0.0-5.0-0.5,learn,30678.099999964237,SetC,SetC3,,999,173845,10,gram,,
392,SetC3,poreeu,True,,['europe'],303,,0.0-5.0-0.6,europe,7319.099999964237,SetC,SetC3,,999,181166,11,gram,,
392,SetC3,ytpe,True,,['type'],361,,0.0-5.0-0.7,type,1573.800000011921,SetC,SetC3,,999,182741,12,gram,,
392,SetC3,spser,True,,['press'],329,,0.0-5.0-0.8,press,3318.5,SetC,SetC3,,999,186061,13,gram,,
392,SetC3,oemv,True,,['move'],316,,0.0-5.0-0.9,move,1815.300000011921,SetC,SetC3,,999,187878,14,gram,,
392,SetC3,naaacd,True,,['canada'],363,,0.0-5.0-0.10,canada,9606.19999998808,SetC,SetC3,,999,197485,15,gram,,
392,SetC3,gorwht,True,,['growth'],306,,0.0-5.0-0.11,growth,36710.19999998808,SetC,SetC3,,999,234197,16,gram,,
392,SetC3,snsee,True,,"['essen', 'sense']",305,,0.0-5.0-0.12,sense,4646.899999976158,SetC,SetC3,,999,238846,17,gram,,
392,SetC3,nunala,False,,['annual'],393,,0.0-5.0-0.13,idk,31462.60000002384,SetC,SetC3,,999,270309,18,gram,,
392,SetC3,lnap,True,,['plan'],355,,0.0-5.0-0.14,plan,1670.300000011921,SetC,SetC3,,999,271981,19,gram,,
392,SetC3,aeys,False,,"['eyas', 'easy']",346,,0.0-5.0-0.15,yeas,7038.800000011921,SetC,SetC3,,999,279021,20,gram,,
392,SetC3,audnsy,True,,['sunday'],441,,0.0-5.0-0.16,sunday,12534.19999998808,SetC,SetC3,,999,291557,21,gram,,
392,SetC3,oewbl,False,,"['elbow', 'below']",437,,0.0-5.0-0.17,idk,52742.19999998808,SetC,SetC3,,999,344301,22,gram,,
392,SetC3,ldea,True,,"['dale', 'deal', 'lead', 'leda']",337,,0.0-5.0-0.18,deal,3982.900000035763,SetC,SetC3,,999,348286,23,gram,,
392,SetC3,asptr,True,,"['sprat', 'parts', 'strap']",431,,0.0-5.0-0.19,strap,4982.299999952316,SetC,SetC3,,999,353269,24,gram,,
392,SetC3,rnlmao,False,,"['molnar', 'normal']",327,,0.0-5.0-0.20,idk,36629.59999996424,SetC,SetC3,,999,389900,25,gram,,
392,SetC3,etdra,False,,"['tread', 'trade']",368,,0.0-5.0-0.21,rated,15463.5,SetC,SetC3,,999,405365,26,gram,,
392,SetC3,seey,True,,['eyes'],424,,0.0-5.0-0.22,eyes,4599.400000035763,SetC,SetC3,,999,409966,27,gram,,
392,SetC3,rset,True,,['rest'],397,,0.0-5.0-0.23,rest,6686.0,SetC,SetC3,,999,416653,28,gram,,
392,SetC3,pusre,True,,"['purse', 'sprue', 'super']",398,,0.0-5.0-0.24,purse,2358.899999976158,SetC,SetC3,,999,419013,29,gram,,
392,SetC3,dsnta,True,,['stand'],347,,0.0-5.0-0.25,stand,3726.399999976158,SetC,SetC3,,999,422741,30,gram,,
392,SetC3,usrais,True,,['russia'],417,,0.0-5.0-0.26,russia,37766.60000002384,SetC,SetC3,,999,460509,31,gram,,
392,SetC3,atsp,True,,"['past', 'spat', 'taps']",310,,0.0-5.0-0.27,past,1894.899999976158,SetC,SetC3,,999,462405,32,gram,,
392,SetC3,lbeatt,True,,"['tablet', 'battle']",396,,0.0-5.0-0.28,tablet,5438.800000011921,SetC,SetC3,,999,467846,33,gram,,
392,SetC3,iref,True,,['fire'],343,,0.0-5.0-0.29,fire,2046.0999999642372,SetC,SetC3,,999,469893,34,gram,,
392,SetC3,ahdsn,True,,['hands'],332,,0.0-5.0-0.30,hands,22343.0,SetC,SetC3,,999,492237,35,gram,,
392,SetC3,ceditr,True,,"['credit', 'direct']",339,,0.0-5.0-0.31,credit,2782.600000023842,SetC,SetC3,,999,495021,36,gram,,
392,SetC3,elaerd,False,,"['leader', 'dealer']",384,,0.0-5.0-0.32,redeal,11575.5,SetC,SetC3,,999,506598,37,gram,,
392,SetC3,ycraz,True,,['crazy'],416,,0.0-5.0-0.33,crazy,2006.0,SetC,SetC3,,999,508605,38,gram,,
392,SetC3,tocs,False,,"['scot', 'cost']",391,,0.0-5.0-0.34,cots,2958.599999964237,SetC,SetC3,,999,511565,39,gram,,
392,SetC3,ystle,False,,['style'],377,,0.0-5.0-0.35,idk,57734.20000004768,SetC,SetC3,,999,569301,40,gram,,
392,SetC3,smraet,False,,"['martes', 'master', 'stream']",411,,0.0-5.0-0.36,emarts,40671.09999996424,SetC,SetC3,,999,609973,41,gram,,
392,SetC3,einc,True,,['nice'],307,,0.0-5.0-0.37,nice,2670.899999976158,SetC,SetC3,,999,612645,42,gram,,
392,SetC3,aildy,True,,"['lydia', 'daily']",422,,0.0-5.0-0.38,daily,2303.099999964237,SetC,SetC3,,999,614950,43,gram,,
392,SetC3,oons,True,,['soon'],331,,0.0-5.0-0.39,soon,1438.2000000476835,SetC,SetC3,,999,616389,44,gram,,
392,SetC3,uessg,True,,['guess'],317,,0.0-5.0-0.40,guess,3678.5,SetC,SetC3,,999,620069,45,gram,,
392,SetC3,iwta,True,,['wait'],319,,0.0-5.0-0.41,wait,1806.4000000357628,SetC,SetC3,,999,621877,46,gram,,
392,SetC3,douns,True,,['sound'],338,,0.0-5.0-0.42,sound,1903.2999999523165,SetC,SetC3,,999,623781,47,gram,,
392,SetC3,esnev,False,,['seven'],407,,0.0-5.0-0.43,evens,22782.30000001192,SetC,SetC3,,999,646558,48,gram,,
392,SetC3,uobdle,True,,['double'],324,,0.0-5.0-0.44,double,5742.399999976158,SetC,SetC3,,999,652300,49,gram,,
392,SetC3,anremg,True,,"['engram', 'german', 'manger']",378,,0.0-5.0-0.45,manger,19087.099999964237,SetC,SetC3,,999,671385,50,gram,,
392,SetC3,daro,True,,"['road', 'orad']",385,,0.0-5.0-0.46,road,2390.099999964237,SetC,SetC3,,999,673776,51,gram,,
392,SetC3,orfm,True,,['form'],340,,0.0-5.0-0.47,form,2294.600000023842,SetC,SetC3,,999,676072,52,gram,,
392,SetC3,nrtu,True,,"['runt', 'turn']",334,,0.0-5.0-0.48,turn,2039.0,SetC,SetC3,,999,678112,53,gram,,
392,SetC3,esfl,True,,['self'],376,,0.0-5.0-0.49,self,2727.399999976158,SetC,SetC3,,999,680840,54,gram,,
392,SetC3,,,resting,,,,0.0-6.0,0,5671.0,,,<p>Great job! You have completed the first block of trials.</p><p>Take a short break before continuing to the next block.</p>,999,686513,55,html-button-response,,
392,SetC3,epsel,True,,['sleep'],449,,0.0-7.0-0.0,sleep,11285.599999964235,SetC,SetC3,,999,697799,56,gram,,
392,SetC3,osgn,True,,"['snog', 'song']",367,,0.0-7.0-0.1,son,2510.400000035763,SetC,SetC3,,999,700311,57,gram,,
392,SetC3,umniet,True,,"['minuet', 'minute']",348,,0.0-7.0-0.2,minute,8590.599999964237,SetC,SetC3,,999,708903,58,gram,,
392,SetC3,erctse,True,,"['resect', 'secret']",420,,0.0-7.0-0.3,secret,2126.900000035763,SetC,SetC3,,999,711031,59,gram,,
392,SetC3,ghiwet,True,,['weight'],315,,0.0-7.0-0.4,weight,6942.600000023842,SetC,SetC3,,999,717975,60,gram,,
392,SetC3,ghreac,True,,['charge'],312,,0.0-7.0-0.5,charge,14950.5,SetC,SetC3,,999,732927,61,gram,,
392,SetC3,seacrh,True,,"['eschar', 'search', 'chaser']",369,,0.0-7.0-0.6,search,4327.200000047684,SetC,SetC3,,999,737255,62,gram,,
392,SetC3,uthtr,True,,['truth'],443,,0.0-7.0-0.7,ruth,11294.900000035765,SetC,SetC3,,999,748551,63,gram,,
392,SetC3,atsy,True,,['stay'],328,,0.0-7.0-0.8,stay,2918.300000011921,SetC,SetC3,,999,751471,64,gram,,
392,SetC3,faiarc,False,,['africa'],438,,0.0-7.0-0.9,idk,24478.0,SetC,SetC3,,999,775950,65,gram,,
392,SetC3,enrcfa,True,,['france'],402,,0.0-7.0-0.10,france,7189.899999976158,SetC,SetC3,,999,783142,66,gram,,
392,SetC3,aeld,True,,"['dale', 'deal', 'lead', 'leda']",430,,0.0-7.0-0.11,deal,3399.800000011921,SetC,SetC3,,999,786543,67,gram,,
392,SetC3,innou,False,,['union'],404,,0.0-7.0-0.12,idk,46901.5,SetC,SetC3,,999,833445,68,gram,,
392,SetC3,eoanl,True,,['alone'],323,,0.0-7.0-0.13,alone,21039.80000001192,SetC,SetC3,,999,854486,69,gram,,
392,SetC3,ohld,True,,['hold'],448,,0.0-7.0-0.14,hold,1654.5,SetC,SetC3,,999,856142,70,gram,,
392,SetC3,mlefea,True,,['female'],336,,0.0-7.0-0.15,female,5174.899999976158,SetC,SetC3,,999,861319,71,gram,,
392,SetC3,owrel,True,,"['lower', 'rowel']",380,,0.0-7.0-0.16,lower,8534.5,SetC,SetC3,,999,869854,72,gram,,
392,SetC3,inam,True,,['main'],379,,0.0-7.0-0.17,main,1630.300000011921,SetC,SetC3,,999,871486,73,gram,,
392,SetC3,gbllao,True,,['global'],375,,0.0-7.0-0.18,global,13142.5,SetC,SetC3,,999,884630,74,gram,,
392,SetC3,aern,True,,"['near', 'earn']",349,,0.0-7.0-0.19,near,2695.300000011921,SetC,SetC3,,999,887326,75,gram,,
392,SetC3,fertof,True,,['effort'],429,,0.0-7.0-0.20,effort,15326.399999976158,SetC,SetC3,,999,902654,76,gram,,
392,SetC3,etffec,True,,['effect'],318,,0.0-7.0-0.21,effect,5822.600000023842,SetC,SetC3,,999,908478,77,gram,,
392,SetC3,lbodo,True,,['blood'],389,,0.0-7.0-0.22,blood,13982.5,SetC,SetC3,,999,922462,78,gram,,
392,SetC3,earkb,True,,"['baker', 'break', 'brake']",314,,0.0-7.0-0.23,break,2358.599999964237,SetC,SetC3,,999,924822,79,gram,,
392,SetC3,onyje,True,,['enjoy'],395,,0.0-7.0-0.24,enjoy,36238.0,SetC,SetC3,,999,961061,80,gram,,
392,SetC3,anidni,True,,['indian'],447,,0.0-7.0-0.25,indian,43878.89999997616,SetC,SetC3,,999,1004941,81,gram,,
392,SetC3,tfsuf,True,,['stuff'],350,,0.0-7.0-0.26,stuff,2167.699999988079,SetC,SetC3,,999,1007110,82,gram,,
392,SetC3,edlh,True,,['held'],382,,0.0-7.0-0.27,held,1702.399999976158,SetC,SetC3,,999,1008813,83,gram,,
392,SetC3,cahin,True,,"['chain', 'chian', 'china']",386,,0.0-7.0-0.28,chain,2775.5,SetC,SetC3,,999,1011590,84,gram,,
392,SetC3,egrne,True,,"['green', 'genre']",353,,0.0-7.0-0.29,green,2469.900000035763,SetC,SetC3,,999,1014061,85,gram,,
392,SetC3,omro,True,,"['moor', 'room', 'moro']",301,,0.0-7.0-0.30,moor,2543.600000023842,SetC,SetC3,,999,1016606,86,gram,,
392,SetC3,easgt,True,,"['stage', 'gates']",383,,0.0-7.0-0.31,stage,8278.900000035763,SetC,SetC3,,999,1024886,87,gram,,
392,SetC3,weiv,True,,"['view', 'wive']",445,,0.0-7.0-0.32,view,4062.5,SetC,SetC3,,999,1028950,88,gram,,
392,SetC3,byba,True,,['baby'],370,,0.0-7.0-0.33,baby,1486.800000011921,SetC,SetC3,,999,1030438,89,gram,,
392,SetC3,stleat,False,,['latest'],423,,0.0-7.0-0.34,least,30854.30000001192,SetC,SetC3,,999,1061293,90,gram,,
392,SetC3,mvigno,True,,['moving'],309,,0.0-7.0-0.35,moving,2095.0,SetC,SetC3,,999,1063390,91,gram,,
392,SetC3,whtor,True,,"['throw', 'worth']",326,,0.0-7.0-0.36,throw,4478.5,SetC,SetC3,,999,1067870,92,gram,,
392,SetC3,tteerl,True,,['letter'],381,,0.0-7.0-0.37,letter,9990.900000035765,SetC,SetC3,,999,1077862,93,gram,,
392,SetC3,sngpir,True,,['spring'],432,,0.0-7.0-0.38,spring,35070.10000002384,SetC,SetC3,,999,1112933,94,gram,,
392,SetC3,daln,True,,['land'],421,,0.0-7.0-0.39,land,2943.199999988079,SetC,SetC3,,999,1115878,95,gram,,
392,SetC3,rtuts,True,,"['trust', 'strut']",365,,0.0-7.0-0.40,strut,3294.0,SetC,SetC3,,999,1119173,96,gram,,
392,SetC3,imss,True,,['miss'],412,,0.0-7.0-0.41,miss,1543.0,SetC,SetC3,,999,1120717,97,gram,,
392,SetC3,ertm,True,,['term'],400,,0.0-7.0-0.42,term,3470.600000023842,SetC,SetC3,,999,1124189,98,gram,,
392,SetC3,earht,True,,"['heart', 'herat', 'harte', 'earth', 'hater']",434,,0.0-7.0-0.43,earth,3414.7000000476837,SetC,SetC3,,999,1127605,99,gram,,
392,SetC3,papre,True,,['paper'],428,,0.0-7.0-0.44,paper,1502.399999976158,SetC,SetC3,,999,1129109,100,gram,,
392,SetC3,tvene,True,,['event'],311,,0.0-7.0-0.45,event,21510.5,SetC,SetC3,,999,1150621,101,gram,,
392,SetC3,leomd,True,,['model'],359,,0.0-7.0-0.46,model,3854.699999988079,SetC,SetC3,,999,1154477,102,gram,,
392,SetC3,ctmha,True,,['match'],362,,0.0-7.0-0.47,match,12502.599999964235,SetC,SetC3,,999,1166981,103,gram,,
392,SetC3,vreid,True,,"['verdi', 'drive', 'diver']",356,,0.0-7.0-0.48,drive,4006.399999976158,SetC,SetC3,,999,1170989,104,gram,,
392,SetC3,etbla,True,,"['bleat', 'table']",440,,0.0-7.0-0.49,table,1806.800000011921,SetC,SetC3,,999,1172797,105,gram,,
392,SetC3,,,resting,,,,0.0-8.0,0,2995.0,,,<p>Great job! You have completed the second block of trials.</p><p>Take a short break before continuing to the final block.</p>,999,1175794,106,html-button-response,,
392,SetC3,ptdose,False,,['posted'],357,,0.0-9.0-0.0,despot,15193.80000001192,SetC,SetC3,,999,1190989,107,gram,,
392,SetC3,legla,True,,['legal'],401,,0.0-9.0-0.1,legal,2334.199999988079,SetC,SetC3,,999,1193325,108,gram,,
392,SetC3,lucb,True,,['club'],433,,0.0-9.0-0.2,club,2254.899999976158,SetC,SetC3,,999,1195581,109,gram,,
392,SetC3,sareh,True,,"['share', 'shear']",302,,0.0-9.0-0.3,shear,5982.599999964237,SetC,SetC3,,999,1201565,110,gram,,
392,SetC3,ariydf,True,,['friday'],372,,0.0-9.0-0.4,friday,2397.399999976158,SetC,SetC3,,999,1203964,111,gram,,
392,SetC3,nuje,True,,['june'],427,,0.0-9.0-0.5,june,1600.300000011921,SetC,SetC3,,999,1205565,112,gram,,
392,SetC3,wdor,True,,['word'],373,,0.0-9.0-0.6,word,1326.600000023842,SetC,SetC3,,999,1206893,113,gram,,
392,SetC3,cheif,True,,['chief'],374,,0.0-9.0-0.7,chief,3103.100000023842,SetC,SetC3,,999,1209997,114,gram,,
392,SetC3,deeger,True,,['degree'],399,,0.0-9.0-0.8,degree,20814.5,SetC,SetC3,,999,1230813,115,gram,,
392,SetC3,btlui,False,,['built'],419,,0.0-9.0-0.9,idk,57493.80000001192,SetC,SetC3,,999,1288309,116,gram,,
392,SetC3,onciem,False,,['income'],366,,0.0-9.0-0.10,idk,113837.80000001192,SetC,SetC3,,999,1402148,117,gram,,
392,SetC3,ourdn,True,,['round'],344,,0.0-9.0-0.11,round,6926.900000035763,SetC,SetC3,,999,1409077,118,gram,,
392,SetC3,ntow,True,,['town'],388,,0.0-9.0-0.12,town,3678.300000011921,SetC,SetC3,,999,1412757,119,gram,,
392,SetC3,hsto,True,,"['host', 'shot']",409,,0.0-9.0-0.13,host,1782.100000023842,SetC,SetC3,,999,1414540,120,gram,,
392,SetC3,ieda,True,,"['aide', 'idea']",313,,0.0-9.0-0.14,idea,1247.0999999642372,SetC,SetC3,,999,1415789,121,gram,,
392,SetC3,iglr,True,,['girl'],304,,0.0-9.0-0.15,girl,1494.5,SetC,SetC3,,999,1417285,122,gram,,
392,SetC3,wfie,True,,['wife'],403,,0.0-9.0-0.16,wife,1150.199999988079,SetC,SetC3,,999,1418436,123,gram,,
392,SetC3,etme,True,,"['teem', 'meet']",364,,0.0-9.0-0.17,meet,1398.899999976158,SetC,SetC3,,999,1419836,124,gram,,
392,SetC3,eanrg,True,,"['anger', 'range']",371,,0.0-9.0-0.18,range,19061.5,SetC,SetC3,,999,1438899,125,gram,,
392,SetC3,areh,True,,"['hare', 'rhea', 'hear', 'hera']",406,,0.0-9.0-0.19,hear,1383.5999999642372,SetC,SetC3,,999,1440284,126,gram,,
392,SetC3,sestir,True,,"['resist', 'sister']",387,,0.0-9.0-0.20,sister,1798.699999988079,SetC,SetC3,,999,1442084,127,gram,,
392,SetC3,lpira,True,,"['pilar', 'april']",308,,0.0-9.0-0.21,april,50590.30000001192,SetC,SetC3,,999,1492676,128,gram,,
392,SetC3,roffe,True,,['offer'],446,,0.0-9.0-0.22,offer,4030.699999988079,SetC,SetC3,,999,1496708,129,gram,,
392,SetC3,etis,True,,['site'],418,,0.0-9.0-0.23,site,2863.0,SetC,SetC3,,999,1499572,130,gram,,
392,SetC3,edad,True,,"['dead', 'edda']",439,,0.0-9.0-0.24,dead,4118.899999976158,SetC,SetC3,,999,1503692,131,gram,,
392,SetC3,craecn,False,,['cancer'],408,,0.0-9.0-0.25,accern,38366.19999998808,SetC,SetC3,,999,1542059,132,gram,,
392,SetC3,voiec,True,,['voice'],425,,0.0-9.0-0.26,voice,1559.0,SetC,SetC3,,999,1543620,133,gram,,
392,SetC3,sieron,False,,['senior'],426,,0.0-9.0-0.27,nosierj,28774.60000002384,SetC,SetC3,,999,1572399,134,gram,,
392,SetC3,vomie,True,,['movie'],335,,0.0-9.0-0.28,movie,4974.899999976158,SetC,SetC3,,999,1577380,135,gram,,
392,SetC3,slti,True,,"['silt', 'list', 'slit']",358,,0.0-9.0-0.29,slit,1686.5,SetC,SetC3,,999,1579069,136,gram,,
392,SetC3,setw,False,,"['stew', 'west']",352,,0.0-9.0-0.30,wets,2222.900000035763,SetC,SetC3,,999,1581295,137,gram,,
392,SetC3,itecav,True,,['active'],405,,0.0-9.0-0.31,active,59030.30000001192,SetC,SetC3,,999,1640337,138,gram,,
392,SetC3,atcpmi,False,,['impact'],435,,0.0-9.0-0.32,idk,113157.40000003576,SetC,SetC3,,999,1753497,139,gram,,
392,SetC3,dicrte,True,,"['credit', 'direct']",444,,0.0-9.0-0.33,credit,3999.199999988079,SetC,SetC3,,999,1757497,140,gram,,
392,SetC3,etilt,True,,['title'],392,,0.0-9.0-0.34,title,14614.80000001192,SetC,SetC3,,999,1772113,141,gram,,
392,SetC3,lvaeu,True,,"['uveal', 'value']",341,,0.0-9.0-0.35,value,10703.0,SetC,SetC3,,999,1782817,142,gram,,
392,SetC3,indlsa,True,,['island'],330,,0.0-9.0-0.36,island,35870.89999997616,SetC,SetC3,,999,1818690,143,gram,,
392,SetC3,woedrn,True,,['wonder'],414,,0.0-9.0-0.37,wonder,51309.40000003576,SetC,SetC3,,999,1870001,144,gram,,
392,SetC3,,,,,,"[{""event"":""blur"",""trial"":18,""time"":260279},{""event"":""focus"",""trial"":18,""time"":260456},{""event"":""blur"",""trial"":31,""time"":445094},{""event"":""focus"",""trial"":31,""time"":445276},{""event"":""blur"",""trial"":48,""time"":628077},{""event"":""focus"",""trial"":48,""time"":628260},{""event"":""blur"",""trial"":72,""time"":868575},{""event"":""focus"",""trial"":72,""time"":868737},{""event"":""blur"",""trial"":90,""time"":1050318},{""event"":""focus"",""trial"":90,""time"":1050487},{""event"":""blur"",""trial"":117,""time"":1357061},{""event"":""focus"",""trial"":117,""time"":1357239},{""event"":""blur"",""trial"":132,""time"":1538468},{""event"":""focus"",""trial"":132,""time"":1538635},{""event"":""blur"",""trial"":139,""time"":1719466},{""event"":""focus"",""trial"":139,""time"":1719642}]",0.0-9.0-0.38,,,,,,999,1899469,145,gram,,
404,SetB3,,,,,,,0.0-0.0,,21980.0,,,,999,21995,0,instructions,"[{'page_index': 0, 'viewing_time': 2757}, {'page_index': 1, 'viewing_time': 1313}, {'page_index': 2, 'viewing_time': 11298}, {'page_index': 3, 'viewing_time': 1855}, {'page_index': 4, 'viewing_time': 2986}, {'page_index': 5, 'viewing_time': 1770}]",
404,SetB3,,,consent,,,,0.0-1.0,0,2153.0,,,"<p>By pressing continue below, I understand that I am consenting to participation in this research.</p>",999,24153,1,html-button-response,,
404,SetB3,,,,,,,0.0-2.0,,25212.0,,,,999,49366,2,instructions,"[{'page_index': 0, 'viewing_time': 1254}, {'page_index': 1, 'viewing_time': 1570}, {'page_index': 2, 'viewing_time': 971}, {'page_index': 3, 'viewing_time': 3137}, {'page_index': 4, 'viewing_time': 12700}, {'page_index': 5, 'viewing_time': 2194}, {'page_index': 6, 'viewing_time': 1251}, {'page_index': 7, 'viewing_time': 1329}, {'page_index': 8, 'viewing_time': 806}]",
404,SetB3,rapctiec,False,,practice,practice,,0.0-3.0,practice,20047.30000001192,practice,practice,,999,69419,3,gram,,
404,SetB3,,,,,,,0.0-4.0,,3981.0,,,,999,73402,4,instructions,"[{'page_index': 0, 'viewing_time': 1185}, {'page_index': 1, 'viewing_time': 1680}, {'page_index': 2, 'viewing_time': 1116}]",
404,SetB3,eekw,True,,['week'],196,,0.0-5.0-0.0,week,5034.199999988079,SetB,SetB3,,999,78438,5,gram,,
404,SetB3,aaer,True,,"['aare', 'area']",247,,0.0-5.0-0.1,area,12017.19999998808,SetB,SetB3,,999,90457,6,gram,,
404,SetB3,efre,True,,"['reef', 'free']",166,,0.0-5.0-0.2,free,1809.899999976158,SetB,SetB3,,999,92269,7,gram,,
404,SetB3,rfou,True,,['four'],217,,0.0-5.0-0.3,four,3070.400000035763,SetB,SetB3,,999,95341,8,gram,,
404,SetB3,mnomet,True,,['moment'],156,,0.0-5.0-0.4,moment,4454.099999964237,SetB,SetB3,,999,99797,9,gram,,
404,SetB3,lapeyd,True,,['played'],159,,0.0-5.0-0.5,played,6202.900000035763,SetB,SetB3,,999,106002,10,gram,,
404,SetB3,liefd,True,,['field'],275,,0.0-5.0-0.6,field,2518.800000011921,SetB,SetB3,,999,108522,11,gram,,
404,SetB3,thilg,False,,['light'],215,,0.0-5.0-0.7,idk,3340.399999976158,SetB,SetB3,,999,111863,12,gram,,
404,SetB3,krwos,True,,['works'],242,,0.0-5.0-0.8,works,2581.5,SetB,SetB3,,999,114447,13,gram,,
404,SetB3,latk,True,,['talk'],274,,0.0-5.0-0.9,talk,3169.5,SetB,SetB3,,999,117618,14,gram,,
404,SetB3,toenf,False,,['often'],158,,0.0-5.0-0.10,idk,2138.300000011921,SetB,SetB3,,999,119758,15,gram,,
404,SetB3,fhla,True,,['half'],277,,0.0-5.0-0.11,half,3604.5,SetB,SetB3,,999,123365,16,gram,,
404,SetB3,iueqt,True,,"['quiet', 'quite']",239,,0.0-5.0-0.12,quiet,2215.399999976158,SetB,SetB3,,999,125582,17,gram,,
404,SetB3,ichceo,True,,"['echoic', 'choice']",273,,0.0-5.0-0.13,choice,3173.699999988079,SetB,SetB3,,999,128757,18,gram,,
404,SetB3,sclas,True,,['class'],188,,0.0-5.0-0.14,class,2234.0,SetB,SetB3,,999,130993,19,gram,,
404,SetB3,driope,False,,['period'],174,,0.0-5.0-0.15,idk,2094.0,SetB,SetB3,,999,133089,20,gram,,
404,SetB3,hitrd,False,,['third'],221,,0.0-5.0-0.16,idk,1944.300000011921,SetB,SetB3,,999,135034,21,gram,,
404,SetB3,lnei,True,,"['lien', 'nile', 'line']",241,,0.0-5.0-0.17,line,5403.100000023842,SetB,SetB3,,999,140440,22,gram,,
404,SetB3,netrec,False,,"['tenrec', 'center', 'recent']",183,,0.0-5.0-0.18,idk,1915.7999999523165,SetB,SetB3,,999,142357,23,gram,,
404,SetB3,adhe,True,,['head'],232,,0.0-5.0-0.19,head,2083.899999976158,SetB,SetB3,,999,144443,24,gram,,
404,SetB3,erve,True,,"['ever', 'veer']",160,,0.0-5.0-0.20,ever,6115.400000035763,SetB,SetB3,,999,150561,25,gram,,
404,SetB3,pcrei,True,,['price'],293,,0.0-5.0-0.21,price,1898.7999999523165,SetB,SetB3,,999,152462,26,gram,,
404,SetB3,ueaelg,False,,['league'],249,,0.0-5.0-0.22,idk,1677.5,SetB,SetB3,,999,154141,27,gram,,
404,SetB3,rtohn,False,,"['north', 'thorn']",203,,0.0-5.0-0.23,idk,3398.399999976158,SetB,SetB3,,999,157541,28,gram,,
404,SetB3,hmanu,True,,"['nahum', 'human']",194,,0.0-5.0-0.24,human,2863.399999976158,SetB,SetB3,,999,160407,29,gram,,
404,SetB3,toherm,False,,['mother'],153,,0.0-5.0-0.25,idk,1506.9000000357628,SetB,SetB3,,999,161915,30,gram,,
404,SetB3,efel,True,,"['feel', 'flee']",154,,0.0-5.0-0.26,feel,1614.300000011921,SetB,SetB3,,999,163531,31,gram,,
404,SetB3,vwerie,False,,"['viewer', 'review']",252,,0.0-5.0-0.27,idk,1771.699999988079,SetB,SetB3,,999,165304,32,gram,,
404,SetB3,ydbo,True,,['body'],295,,0.0-5.0-0.28,body,1792.199999988079,SetB,SetB3,,999,167098,33,gram,,
404,SetB3,tpos,True,,"['spot', 'stop', 'post']",226,,0.0-5.0-0.29,post,1744.0,SetB,SetB3,,999,168843,34,gram,,
404,SetB3,ardey,True,,['ready'],245,,0.0-5.0-0.30,ready,2326.699999988079,SetB,SetB3,,999,171172,35,gram,,
404,SetB3,harde,False,,['heard'],254,,0.0-5.0-0.31,idk,1773.4000000357628,SetB,SetB3,,999,172946,36,gram,,
404,SetB3,ssel,True,,['less'],238,,0.0-5.0-0.32,less,4251.399999976158,SetB,SetB3,,999,177200,37,gram,,
404,SetB3,ocmmon,True,,['common'],177,,0.0-5.0-0.33,common,1766.5,SetB,SetB3,,999,178968,38,gram,,
404,SetB3,fcea,True,,"['face', 'cafe']",256,,0.0-5.0-0.34,face,2145.600000023842,SetB,SetB3,,999,181116,39,gram,,
404,SetB3,othrs,False,,"['horst', 'short']",218,,0.0-5.0-0.35,idk,5968.100000023842,SetB,SetB3,,999,187086,40,gram,,
404,SetB3,urmmes,True,,['summer'],165,,0.0-5.0-0.36,summer,2864.199999988079,SetB,SetB3,,999,189952,41,gram,,
404,SetB3,tshou,True,,"['south', 'shout']",164,,0.0-5.0-0.37,shout,2478.300000011921,SetB,SetB3,,999,192432,42,gram,,
404,SetB3,midn,True,,['mind'],283,,0.0-5.0-0.38,mind,1290.0,SetB,SetB3,,999,193724,43,gram,,
404,SetB3,dimdle,False,,['middle'],204,,0.0-5.0-0.39,idk,3043.900000035763,SetB,SetB3,,999,196769,44,gram,,
404,SetB3,eopn,True,,['open'],244,,0.0-5.0-0.40,open,1430.7999999523165,SetB,SetB3,,999,198201,45,gram,,
404,SetB3,ture,True,,['true'],289,,0.0-5.0-0.41,true,2870.0,SetB,SetB3,,999,201073,46,gram,,
404,SetB3,oenph,False,,['phone'],233,,0.0-5.0-0.42,idk,1697.399999976158,SetB,SetB3,,999,202771,47,gram,,
404,SetB3,spilme,False,,['simple'],270,,0.0-5.0-0.43,idk,1527.7999999523165,SetB,SetB3,,999,204300,48,gram,,
404,SetB3,lnoag,False,,"['along', 'logan']",182,,0.0-5.0-0.44,idk,2823.5,SetB,SetB3,,999,207125,49,gram,,
404,SetB3,bael,True,,"['able', 'bale', 'abel', 'blae']",265,,0.0-5.0-0.45,bale,4742.699999988079,SetB,SetB3,,999,211869,50,gram,,
404,SetB3,dmenor,False,,['modern'],279,,0.0-5.0-0.46,idk,1619.199999988079,SetB,SetB3,,999,213490,51,gram,,
404,SetB3,lleve,False,,['level'],155,,0.0-5.0-0.47,idk,2688.5,SetB,SetB3,,999,216180,52,gram,,
404,SetB3,seascc,False,,['access'],294,,0.0-5.0-0.48,idk,1994.199999988079,SetB,SetB3,,999,218175,53,gram,,
404,SetB3,nuoyct,False,,['county'],195,,0.0-5.0-0.49,idk,2094.5,SetB,SetB3,,999,220273,54,gram,,
404,SetB3,,,resting,,,,0.0-6.0,0,2735.0,,,<p>Great job! You have completed the first block of trials.</p><p>Take a short break before continuing to the next block.</p>,999,223010,55,html-button-response,,
404,SetB3,siuse,False,,['issue'],287,,0.0-7.0-0.0,idk,3301.400000035763,SetB,SetB3,,999,226313,56,gram,,
404,SetB3,ctahw,True,,['watch'],206,,0.0-7.0-0.1,watch,1550.899999976158,SetB,SetB3,,999,227866,57,gram,,
404,SetB3,kntae,False,,['taken'],212,,0.0-7.0-0.2,idk,2146.800000011921,SetB,SetB3,,999,230014,58,gram,,
404,SetB3,slcoe,True,,"['close', 'socle']",185,,0.0-7.0-0.3,close,2022.7000000476835,SetB,SetB3,,999,232038,59,gram,,
404,SetB3,enod,True,,"['done', 'node']",190,,0.0-7.0-0.4,done,2251.400000035763,SetB,SetB3,,999,234291,60,gram,,
404,SetB3,hercnf,False,,['french'],264,,0.0-7.0-0.5,idk,2206.399999976158,SetB,SetB3,,999,236498,61,gram,,
404,SetB3,rracee,False,,['career'],282,,0.0-7.0-0.6,idk,1641.9000000357628,SetB,SetB3,,999,238141,62,gram,,
404,SetB3,coen,True,,"['once', 'cone']",220,,0.0-7.0-0.7,cone,2608.2999999523163,SetB,SetB3,,999,240751,63,gram,,
404,SetB3,aawy,True,,['away'],169,,0.0-7.0-0.8,away,1523.5,SetB,SetB3,,999,242276,64,gram,,
404,SetB3,ecpluo,False,,['couple'],192,,0.0-7.0-0.9,idk,3182.899999976158,SetB,SetB3,,999,245460,65,gram,,
404,SetB3,hrhieg,False,,['higher'],207,,0.0-7.0-0.10,idk,1246.100000023842,SetB,SetB3,,999,246708,66,gram,,
404,SetB3,utagus,False,,['august'],255,,0.0-7.0-0.11,idk,1344.800000011921,SetB,SetB3,,999,248054,67,gram,,
404,SetB3,tnmho,False,,['month'],272,,0.0-7.0-0.12,idk,2028.399999976158,SetB,SetB3,,999,250084,68,gram,,
404,SetB3,ihcdl,True,,['child'],236,,0.0-7.0-0.13,child,4036.399999976158,SetB,SetB3,,999,254123,69,gram,,
404,SetB3,nietsl,False,,"['enlist', 'tinsel', 'listen', 'silent']",291,,0.0-7.0-0.14,idk,1340.699999988079,SetB,SetB3,,999,255464,70,gram,,
404,SetB3,fntro,True,,['front'],248,,0.0-7.0-0.15,front,4066.399999976158,SetB,SetB3,,999,259532,71,gram,,
404,SetB3,inkd,True,,"['kind', 'dink']",250,,0.0-7.0-0.16,kind,2875.300000011921,SetB,SetB3,,999,262409,72,gram,,
404,SetB3,mnoaw,False,,['woman'],200,,0.0-7.0-0.17,idk,1328.199999988079,SetB,SetB3,,999,263739,73,gram,,
404,SetB3,pcesa,False,,"['space', 'scape']",281,,0.0-7.0-0.18,idk,5436.199999988079,SetB,SetB3,,999,269177,74,gram,,
404,SetB3,evfi,True,,['five'],253,,0.0-7.0-0.19,five,1404.9000000357628,SetB,SetB3,,999,270584,75,gram,,
404,SetB3,allc,True,,['call'],229,,0.0-7.0-0.20,call,1456.800000011921,SetB,SetB3,,999,272042,76,gram,,
404,SetB3,vobae,False,,['above'],299,,0.0-7.0-0.21,idk,1443.0,SetB,SetB3,,999,273486,77,gram,,
404,SetB3,viel,True,,"['evil', 'veil', 'live']",202,,0.0-7.0-0.22,live,2028.7000000476835,SetB,SetB3,,999,275517,78,gram,,
404,SetB3,bador,False,,"['broad', 'board', 'dobra']",278,,0.0-7.0-0.23,idk,2827.099999964237,SetB,SetB3,,999,278346,79,gram,,
404,SetB3,eacr,True,,"['acer', 'care', 'race', 'acre']",193,,0.0-7.0-0.24,care,2019.9000000357628,SetB,SetB3,,999,280368,80,gram,,
404,SetB3,rapley,False,,"['player', 'pearly', 'replay', 'parley']",198,,0.0-7.0-0.25,idk,1416.399999976158,SetB,SetB3,,999,281785,81,gram,,
404,SetB3,tolat,False,,['total'],296,,0.0-7.0-0.26,idk,2704.099999964237,SetB,SetB3,,999,284490,82,gram,,
404,SetB3,lful,True,,['full'],205,,0.0-7.0-0.27,full,1776.300000011921,SetB,SetB3,,999,286267,83,gram,,
404,SetB3,sdei,True,,"['side', 'ides']",235,,0.0-7.0-0.28,side,1211.300000011921,SetB,SetB3,,999,287480,84,gram,,
404,SetB3,orwng,True,,['wrong'],176,,0.0-7.0-0.29,wrong,2182.899999976158,SetB,SetB3,,999,289664,85,gram,,
404,SetB3,uregif,False,,['figure'],285,,0.0-7.0-0.30,idk,1511.199999988079,SetB,SetB3,,999,291176,86,gram,,
404,SetB3,yict,True,,['city'],181,,0.0-7.0-0.31,city,3780.399999976158,SetB,SetB3,,999,294958,87,gram,,
404,SetB3,hyapp,True,,['happy'],191,,0.0-7.0-0.32,happy,1687.2000000476835,SetB,SetB3,,999,296646,88,gram,,
404,SetB3,etll,True,,['tell'],223,,0.0-7.0-0.33,tell,1355.9000000357628,SetB,SetB3,,999,298003,89,gram,,
404,SetB3,ceas,False,,['case'],199,,0.0-7.0-0.34,idk,8278.5,SetB,SetB3,,999,306283,90,gram,,
404,SetB3,rodsw,False,,"['words', 'sword']",269,,0.0-7.0-0.35,idk,2357.0,SetB,SetB3,,999,308641,91,gram,,
404,SetB3,rgdoun,True,,['ground'],237,,0.0-7.0-0.36,ground,1732.100000023842,SetB,SetB3,,999,310374,92,gram,,
404,SetB3,htead,False,,['death'],167,,0.0-7.0-0.37,idk,1583.5,SetB,SetB3,,999,311958,93,gram,,
404,SetB3,happne,True,,['happen'],201,,0.0-7.0-0.38,happen,1791.4000000357628,SetB,SetB3,,999,313751,94,gram,,
404,SetB3,epke,True,,"['peek', 'keep']",163,,0.0-7.0-0.39,peek,2570.400000035763,SetB,SetB3,,999,316323,95,gram,,
404,SetB3,geral,False,,"['lager', 'glare', 'elgar', 'alger', 'large']",173,,0.0-7.0-0.40,regal,6445.399999976158,SetB,SetB3,,999,322770,96,gram,,
404,SetB3,lnaif,False,,['final'],251,,0.0-7.0-0.41,idk,1752.5999999642372,SetB,SetB3,,999,324524,97,gram,,
404,SetB3,hepo,True,,['hope'],259,,0.0-7.0-0.42,hope,4058.300000011921,SetB,SetB3,,999,328584,98,gram,,
404,SetB3,igneds,False,,"['signed', 'design']",219,,0.0-7.0-0.43,idk,1237.4000000357628,SetB,SetB3,,999,329822,99,gram,,
404,SetB3,ewrsna,True,,['answer'],222,,0.0-7.0-0.44,answer,2256.800000011921,SetB,SetB3,,999,332081,100,gram,,
404,SetB3,snwe,True,,['news'],262,,0.0-7.0-0.45,news,4309.300000011921,SetB,SetB3,,999,336391,101,gram,,
404,SetB3,nbirg,False,,['bring'],257,,0.0-7.0-0.46,idk,1331.399999976158,SetB,SetB3,,999,337724,102,gram,,
404,SetB3,ospt,True,,"['spot', 'stop', 'post']",268,,0.0-7.0-0.47,post,1299.699999988079,SetB,SetB3,,999,339025,103,gram,,
404,SetB3,tcfa,True,,['fact'],286,,0.0-7.0-0.48,fact,1760.0,SetB,SetB3,,999,340786,104,gram,,
404,SetB3,rdha,False,,['hard'],211,,0.0-7.0-0.49,idk,3809.900000035763,SetB,SetB3,,999,344597,105,gram,,
404,SetB3,,,resting,,,,0.0-8.0,0,2226.0,,,<p>Great job! You have completed the second block of trials.</p><p>Take a short break before continuing to the final block.</p>,999,346827,106,html-button-response,,
404,SetB3,wololf,False,,['follow'],243,,0.0-9.0-0.0,idk,1566.5,SetB,SetB3,,999,348394,107,gram,,
404,SetB3,okbo,True,,"['kobo', 'book']",271,,0.0-9.0-0.1,book,1297.9000000357628,SetB,SetB3,,999,349694,108,gram,,
404,SetB3,ceckh,True,,['check'],224,,0.0-9.0-0.2,check,1680.300000011921,SetB,SetB3,,999,351377,109,gram,,
404,SetB3,orglne,False,,['longer'],228,,0.0-9.0-0.3,idk,1318.399999976158,SetB,SetB3,,999,352696,110,gram,,
404,SetB3,resu,False,,"['sure', 'suer', 'ruse', 'user']",151,,0.0-9.0-0.4,idk,2150.100000023842,SetB,SetB3,,999,354849,111,gram,,
404,SetB3,ernect,False,,"['tenrec', 'center', 'recent']",297,,0.0-9.0-0.5,idk,1743.7000000476835,SetB,SetB3,,999,356594,112,gram,,
404,SetB3,erbmem,False,,['member'],216,,0.0-9.0-0.6,idk,8840.0,SetB,SetB3,,999,365435,113,gram,,
404,SetB3,greeny,False,,['energy'],162,,0.0-9.0-0.7,idk,2738.099999964237,SetB,SetB3,,999,368174,114,gram,,
404,SetB3,enma,True,,"['amen', 'mane', 'mean', 'name']",214,,0.0-9.0-0.8,name,1850.0,SetB,SetB3,,999,370026,115,gram,,
404,SetB3,giivgn,True,,['giving'],234,,0.0-9.0-0.9,giving,1718.100000023842,SetB,SetB3,,999,371745,116,gram,,
404,SetB3,daer,True,,"['read', 'dare', 'dear']",208,,0.0-9.0-0.10,dear,2620.0,SetB,SetB3,,999,374367,117,gram,,
404,SetB3,eriten,False,,['entire'],258,,0.0-9.0-0.11,idk,1683.5999999642372,SetB,SetB3,,999,376052,118,gram,,
404,SetB3,amen,True,,"['amen', 'mean', 'name', 'mane']",178,,0.0-9.0-0.12,mean,2603.400000035763,SetB,SetB3,,999,378658,119,gram,,
404,SetB3,lpicyo,False,,['policy'],225,,0.0-9.0-0.13,idk,1810.2000000476835,SetB,SetB3,,999,380469,120,gram,,
404,SetB3,ckatat,False,,['attack'],267,,0.0-9.0-0.14,idk,1559.300000011921,SetB,SetB3,,999,382031,121,gram,,
404,SetB3,eegisn,False,,['seeing'],300,,0.0-9.0-0.15,idk,3555.0,SetB,SetB3,,999,385587,122,gram,,
404,SetB3,deorrc,False,,['record'],171,,0.0-9.0-0.16,idk,2111.400000035763,SetB,SetB3,,999,387701,123,gram,,
404,SetB3,nevgi,False,,['given'],152,,0.0-9.0-0.17,idk,2197.300000011921,SetB,SetB3,,999,389900,124,gram,,
404,SetB3,doof,True,,['food'],292,,0.0-9.0-0.18,food,1848.2000000476835,SetB,SetB3,,999,391750,125,gram,,
404,SetB3,ypla,True,,['play'],175,,0.0-9.0-0.19,play,1339.300000011921,SetB,SetB3,,999,393091,126,gram,,
404,SetB3,edened,False,,['needed'],210,,0.0-9.0-0.20,idk,1331.300000011921,SetB,SetB3,,999,394423,127,gram,,
404,SetB3,eacus,False,,"['cause', 'sauce']",197,,0.0-9.0-0.21,idk,4766.100000023842,SetB,SetB3,,999,399190,128,gram,,
404,SetB3,aerl,True,,"['lear', 'earl', 'real']",187,,0.0-9.0-0.22,real,1665.7999999523165,SetB,SetB3,,999,400857,129,gram,,
404,SetB3,ocref,False,,['force'],290,,0.0-9.0-0.23,dk,1597.300000011921,SetB,SetB3,,999,402455,130,gram,,
404,SetB3,rnertu,False,,"['return', 'turner']",189,,0.0-9.0-0.24,idk,1341.399999976158,SetB,SetB3,,999,403798,131,gram,,
404,SetB3,ydsa,True,,['days'],184,,0.0-9.0-0.25,days,2674.400000035763,SetB,SetB3,,999,406474,132,gram,,
404,SetB3,tdyus,False,,"['dusty', 'study']",263,,0.0-9.0-0.26,idk,1563.800000011921,SetB,SetB3,,999,408039,133,gram,,
404,SetB3,aemt,True,,"['tame', 'meat', 'team', 'mate']",157,,0.0-9.0-0.27,meat,1284.899999976158,SetB,SetB3,,999,409326,134,gram,,
404,SetB3,eftl,True,,"['left', 'felt']",172,,0.0-9.0-0.28,felt,1937.199999988079,SetB,SetB3,,999,411265,135,gram,,
404,SetB3,rsueoc,False,,"['crouse', 'source', 'cerous', 'course']",240,,0.0-9.0-0.29,idk,1314.399999976158,SetB,SetB3,,999,412580,136,gram,,
404,SetB3,iylkle,False,,['likely'],180,,0.0-9.0-0.30,idk,1222.9000000357628,SetB,SetB3,,999,413804,137,gram,,
404,SetB3,ouctr,True,,['court'],161,,0.0-9.0-0.31,court,3166.800000011921,SetB,SetB3,,999,416972,138,gram,,
404,SetB3,lrteus,False,,"['rustle', 'ulster', 'luster', 'sutler', 'result']",213,,0.0-9.0-0.32,idk,1396.5,SetB,SetB3,,999,418370,139,gram,,
404,SetB3,nahd,True,,['hand'],280,,0.0-9.0-0.33,hand,2272.599999964237,SetB,SetB3,,999,420646,140,gram,,
404,SetB3,egtrfo,False,,['forget'],288,,0.0-9.0-0.34,idk,1327.199999988079,SetB,SetB3,,999,421974,141,gram,,
404,SetB3,entudr,False,,['turned'],261,,0.0-9.0-0.35,idk,1510.5,SetB,SetB3,,999,423487,142,gram,,
404,SetB3,oautnm,False,,['amount'],246,,0.0-9.0-0.36,idk,2164.899999976158,SetB,SetB3,,999,425653,143,gram,,
404,SetB3,oshru,False,,"['horus', 'hours']",170,,0.0-9.0-0.37,idk,6212.300000011921,SetB,SetB3,,999,431866,144,gram,,
404,SetB3,slot,True,,"['slot', 'lost']",298,,0.0-9.0-0.38,lost,2552.899999976158,SetB,SetB3,,999,434420,145,gram,,
404,SetB3,sidien,False,,['inside'],186,,0.0-9.0-0.39,idk,1475.100000023842,SetB,SetB3,,999,435896,146,gram,,
404,SetB3,ipylsm,False,,['simply'],276,,0.0-9.0-0.40,idk,1304.899999976158,SetB,SetB3,,999,437203,147,gram,,
404,SetB3,crchuh,True,,['church'],231,,0.0-9.0-0.41,church,2732.7999999523163,SetB,SetB3,,999,439937,148,gram,,
404,SetB3,ihgft,True,,['fight'],284,,0.0-9.0-0.42,fight,1716.0999999642372,SetB,SetB3,,999,441654,149,gram,,
404,SetB3,rteah,False,,"['herat', 'heart', 'harte', 'earth', 'hater']",227,,0.0-9.0-0.43,idk,2852.699999988079,SetB,SetB3,,999,444508,150,gram,,
404,SetB3,stgron,False,,['strong'],168,,0.0-9.0-0.44,idk,1203.199999988079,SetB,SetB3,,999,445712,151,gram,,
404,SetB3,rmoja,False,,['major'],230,,0.0-9.0-0.45,idk,2177.2999999523163,SetB,SetB3,,999,447890,152,gram,,
404,SetB3,mrcah,True,,"['march', 'charm']",260,,0.0-9.0-0.46,march,2454.0,SetB,SetB3,,999,450345,153,gram,,
404,SetB3,aelve,True,,['leave'],209,,0.0-9.0-0.47,leave,1481.800000011921,SetB,SetB3,,999,451829,154,gram,,
404,SetB3,crela,False,,"['clear', 'lacer']",266,,0.0-9.0-0.48,idk,2331.599999964237,SetB,SetB3,,999,454161,155,gram,,
404,SetB3,konnw,True,,['known'],179,,0.0-9.0-0.49,known,3079.899999976158,SetB,SetB3,,999,457243,156,gram,,
404,SetB3,,,,,,,0.0-11.0,enter,5248.0,,,<p>Thank you for participating! You scored 51.33 percent correct!</p>,999,552894,158,html-keyboard-response,,
404,SetB3,,,,,,"[{""event"":""blur"",""trial"":6,""time"":88620},{""event"":""focus"",""trial"":6,""time"":90180},{""event"":""focus"",""trial"":6,""time"":90180},{""event"":""blur"",""trial"":22,""time"":138141},{""event"":""focus"",""trial"":22,""time"":138141},{""event"":""blur"",""trial"":157,""time"":459650},{""event"":""focus"",""trial"":157,""time"":461545},{""event"":""blur"",""trial"":157,""time"":468765},{""event"":""focus"",""trial"":157,""time"":470475},{""event"":""blur"",""trial"":157,""time"":477069},{""event"":""focus"",""trial"":157,""time"":481687},{""event"":""blur"",""trial"":157,""time"":484491},{""event"":""focus"",""trial"":157,""time"":484491},{""event"":""blur"",""trial"":157,""time"":492615},{""event"":""focus"",""trial"":157,""time"":493941},{""event"":""blur"",""trial"":157,""time"":500929},{""event"":""focus"",""trial"":157,""time"":502609},{""event"":""blur"",""trial"":157,""time"":504463},{""event"":""focus"",""trial"":157,""time"":510057},{""event"":""blur"",""trial"":157,""time"":513871},{""event"":""focus"",""trial"":157,""time"":516668},{""event"":""blur"",""trial"":157,""time"":519007},{""event"":""focus"",""trial"":157,""time"":521288},{""event"":""blur"",""trial"":157,""time"":524417},{""event"":""focus"",""trial"":157,""time"":526204},{""event"":""blur"",""trial"":157,""time"":528889},{""event"":""focus"",""trial"":157,""time"":528889},{""event"":""blur"",""trial"":157,""time"":530309},{""event"":""focus"",""trial"":157,""time"":532842},{""event"":""blur"",""trial"":157,""time"":535373},{""event"":""focus"",""trial"":157,""time"":537020},{""event"":""blur"",""trial"":157,""time"":538900},{""event"":""focus"",""trial"":157,""time"":540483},{""event"":""blur"",""trial"":157,""time"":542521},{""event"":""focus"",""trial"":157,""time"":543883},{""event"":""blur"",""trial"":157,""time"":546167},{""event"":""focus"",""trial"":157,""time"":546984}]",0.0-12.0,,4405.0,,,,999,557300,159,instructions,"[{'page_index': 0, 'viewing_time': 1554}, {'page_index': 1, 'viewing_time': 2850}]",
390,SetB3,,,,,,,0.0-0.0,,50332.0,,,,999,50364,0,instructions,"[{'page_index': 0, 'viewing_time': 3739}, {'page_index': 1, 'viewing_time': 5275}, {'page_index': 2, 'viewing_time': 18471}, {'page_index': 3, 'viewing_time': 10839}, {'page_index': 4, 'viewing_time': 1336}, {'page_index': 3, 'viewing_time': 2471}, {'page_index': 4, 'viewing_time': 2902}, {'page_index': 5, 'viewing_time': 5299}]",
390,SetB3,,,consent,,,,0.0-1.0,0,3622.0,,,"<p>By pressing continue below, I understand that I am consenting to participation in this research.</p>",999,53995,1,html-button-response,,
390,SetB3,,,,,,,0.0-2.0,,42214.0,,,,999,96217,2,instructions,"[{'page_index': 0, 'viewing_time': 1332}, {'page_index': 1, 'viewing_time': 963}, {'page_index': 0, 'viewing_time': 3515}, {'page_index': 1, 'viewing_time': 3987}, {'page_index': 2, 'viewing_time': 3916}, {'page_index': 1, 'viewing_time': 1868}, {'page_index': 2, 'viewing_time': 1155}, {'page_index': 3, 'viewing_time': 6799}, {'page_index': 4, 'viewing_time': 1927}, {'page_index': 5, 'viewing_time': 4295}, {'page_index': 6, 'viewing_time': 2991}, {'page_index': 7, 'viewing_time': 5997}, {'page_index': 8, 'viewing_time': 1043}, {'page_index': 7, 'viewing_time': 966}, {'page_index': 8, 'viewing_time': 1459}]",
390,SetB3,rapctiec,False,,practice,practice,,0.0-3.0,practice,13491.0,practice,practice,,999,109710,3,gram,,
390,SetB3,,,,,,,0.0-4.0,,8298.0,,,,999,118010,4,instructions,"[{'page_index': 0, 'viewing_time': 3201}, {'page_index': 1, 'viewing_time': 4092}, {'page_index': 2, 'viewing_time': 1005}]",
390,SetB3,eekw,True,,['week'],196,,0.0-5.0-0.0,week,4273.000000000015,SetB,SetB3,,999,122285,5,gram,,
390,SetB3,aaer,False,,"['aare', 'area']",247,,0.0-5.0-0.1,rear,4220.999999999985,SetB,SetB3,,999,126509,6,gram,,
390,SetB3,efre,True,,"['reef', 'free']",166,,0.0-5.0-0.2,free,3057.0,SetB,SetB3,,999,129568,7,gram,,
390,SetB3,rfou,True,,['four'],217,,0.0-5.0-0.3,four,23764.999999999985,SetB,SetB3,,999,153335,8,gram,,
390,SetB3,mnomet,True,,['moment'],156,,0.0-5.0-0.4,moment,10767.0,SetB,SetB3,,999,164105,9,gram,,
390,SetB3,lapeyd,True,,['played'],159,,0.0-5.0-0.5,played,5318.999999999971,SetB,SetB3,,999,169426,10,gram,,
390,SetB3,liefd,True,,['field'],275,,0.0-5.0-0.6,field,4139.0,SetB,SetB3,,999,173567,11,gram,,
390,SetB3,thilg,True,,['light'],215,,0.0-5.0-0.7,light,21243.0,SetB,SetB3,,999,194812,12,gram,,
390,SetB3,krwos,True,,['works'],242,,0.0-5.0-0.8,works,15562.0,SetB,SetB3,,999,210377,13,gram,,
390,SetB3,latk,True,,['talk'],274,,0.0-5.0-0.9,talk,11516.00000000003,SetB,SetB3,,999,221895,14,gram,,
390,SetB3,toenf,False,,['often'],158,,0.0-5.0-0.10,fonte,58597.0,SetB,SetB3,,999,280495,15,gram,,
390,SetB3,fhla,True,,['half'],277,,0.0-5.0-0.11,half,5736.0,SetB,SetB3,,999,286235,16,gram,,
390,SetB3,iueqt,True,,"['quiet', 'quite']",239,,0.0-5.0-0.12,quiet,4526.000000000058,SetB,SetB3,,999,290762,17,gram,,
390,SetB3,ichceo,True,,"['echoic', 'choice']",273,,0.0-5.0-0.13,choice,45623.00000000006,SetB,SetB3,,999,336388,18,gram,,
390,SetB3,sclas,True,,['class'],188,,0.0-5.0-0.14,class,9121.0,SetB,SetB3,,999,345512,19,gram,,
390,SetB3,driope,False,,['period'],174,,0.0-5.0-0.15,idk,67704.99999999994,SetB,SetB3,,999,413221,20,gram,,
390,SetB3,hitrd,True,,['third'],221,,0.0-5.0-0.16,third,20922.0,SetB,SetB3,,999,434146,21,gram,,
390,SetB3,lnei,False,,"['lien', 'nile', 'line']",241,,0.0-5.0-0.17,neil,9334.0,SetB,SetB3,,999,443482,22,gram,,
390,SetB3,netrec,False,,"['tenrec', 'center', 'recent']",183,,0.0-5.0-0.18,recten,28478.0,SetB,SetB3,,999,471963,23,gram,,
390,SetB3,adhe,True,,['head'],232,,0.0-5.0-0.19,head,10582.999999999942,SetB,SetB3,,999,482548,24,gram,,
390,SetB3,erve,True,,"['ever', 'veer']",160,,0.0-5.0-0.20,veer,5616.000000000058,SetB,SetB3,,999,488167,25,gram,,
390,SetB3,pcrei,True,,['price'],293,,0.0-5.0-0.21,price,5135.000000000058,SetB,SetB3,,999,493304,26,gram,,
390,SetB3,ueaelg,True,,['league'],249,,0.0-5.0-0.22,league,46556.0,SetB,SetB3,,999,539864,27,gram,,
390,SetB3,rtohn,True,,"['north', 'thorn']",203,,0.0-5.0-0.23,north,13501.000000000116,SetB,SetB3,,999,553367,28,gram,,
390,SetB3,hmanu,True,,"['nahum', 'human']",194,,0.0-5.0-0.24,human,1923.0,SetB,SetB3,,999,555294,29,gram,,
390,SetB3,toherm,True,,['mother'],153,,0.0-5.0-0.25,mother,3189.0,SetB,SetB3,,999,558487,30,gram,,
390,SetB3,efel,True,,"['feel', 'flee']",154,,0.0-5.0-0.26,feel,2385.0,SetB,SetB3,,999,560873,31,gram,,
390,SetB3,vwerie,False,,"['viewer', 'review']",252,,0.0-5.0-0.27,idk,62723.00000000012,SetB,SetB3,,999,623600,32,gram,,
390,SetB3,ydbo,True,,['body'],295,,0.0-5.0-0.28,body,6966.0,SetB,SetB3,,999,630568,33,gram,,
390,SetB3,tpos,True,,"['spot', 'stop', 'post']",226,,0.0-5.0-0.29,spot,4961.0,SetB,SetB3,,999,635532,34,gram,,
390,SetB3,ardey,False,,['ready'],245,,0.0-5.0-0.30,deary,17598.0,SetB,SetB3,,999,653132,35,gram,,
390,SetB3,harde,True,,['heard'],254,,0.0-5.0-0.31,heard,12557.0,SetB,SetB3,,999,665692,36,gram,,
390,SetB3,ssel,True,,['less'],238,,0.0-5.0-0.32,less,9088.0,SetB,SetB3,,999,674782,37,gram,,
390,SetB3,ocmmon,True,,['common'],177,,0.0-5.0-0.33,common,2461.0,SetB,SetB3,,999,677245,38,gram,,
390,SetB3,fcea,True,,"['face', 'cafe']",256,,0.0-5.0-0.34,face,2850.0000000001164,SetB,SetB3,,999,680097,39,gram,,
390,SetB3,othrs,True,,"['horst', 'short']",218,,0.0-5.0-0.35,horst,47747.0,SetB,SetB3,,999,727848,40,gram,,
390,SetB3,urmmes,True,,['summer'],165,,0.0-5.0-0.36,summer,12172.000000000116,SetB,SetB3,,999,740022,41,gram,,
390,SetB3,tshou,True,,"['south', 'shout']",164,,0.0-5.0-0.37,south,3744.0,SetB,SetB3,,999,743769,42,gram,,
390,SetB3,midn,True,,['mind'],283,,0.0-5.0-0.38,mind,13397.0,SetB,SetB3,,999,757169,43,gram,,
390,SetB3,dimdle,True,,['middle'],204,,0.0-5.0-0.39,middle,10890.0,SetB,SetB3,,999,768061,44,gram,,
390,SetB3,eopn,True,,['open'],244,,0.0-5.0-0.40,open,1636.0,SetB,SetB3,,999,769699,45,gram,,
390,SetB3,ture,True,,['true'],289,,0.0-5.0-0.41,true,18136.999999999884,SetB,SetB3,,999,787839,46,gram,,
390,SetB3,oenph,True,,['phone'],233,,0.0-5.0-0.42,phone,4001.0,SetB,SetB3,,999,791841,47,gram,,
390,SetB3,,,,,,"[{""event"":""blur"",""trial"":3,""time"":106661},{""event"":""focus"",""trial"":3,""time"":106669},{""event"":""blur"",""trial"":18,""time"":300018},{""event"":""focus"",""trial"":18,""time"":300026},{""event"":""blur"",""trial"":24,""time"":481347},{""event"":""focus"",""trial"":24,""time"":481357},{""event"":""blur"",""trial"":33,""time"":626923},{""event"":""focus"",""trial"":33,""time"":629039},{""event"":""blur"",""trial"":36,""time"":663932},{""event"":""focus"",""trial"":36,""time"":663947}]",0.0-5.0-0.43,,,,,,999,843939,48,gram,,
371,SetA2,,,,,,,0.0-0.0,,25288.0,,,,999,25299,0,instructions,"[{'page_index': 0, 'viewing_time': 1308}, {'page_index': 1, 'viewing_time': 3063}, {'page_index': 2, 'viewing_time': 12181}, {'page_index': 3, 'viewing_time': 4336}, {'page_index': 4, 'viewing_time': 1364}, {'page_index': 5, 'viewing_time': 3035}]",
371,SetA2,,,consent,,,,0.0-1.0,0,1532.0,,,"<p>By pressing continue below, I understand that I am consenting to participation in this research.</p>",999,26834,1,html-button-response,,
371,SetA2,,,,,,,0.0-2.0,,21016.0,,,,999,47852,2,instructions,"[{'page_index': 0, 'viewing_time': 1782}, {'page_index': 1, 'viewing_time': 2666}, {'page_index': 2, 'viewing_time': 1130}, {'page_index': 3, 'viewing_time': 2900}, {'page_index': 4, 'viewing_time': 1950}, {'page_index': 5, 'viewing_time': 2251}, {'page_index': 6, 'viewing_time': 3103}, {'page_index': 7, 'viewing_time': 4217}, {'page_index': 8, 'viewing_time': 1017}]",
371,SetA2,rapctiec,False,,practice,practice,,0.0-3.0,practice,11523.799999998882,practice,practice,,999,59380,3,gram,,
371,SetA2,,,,,,,0.0-4.0,,6320.0,,,,999,65701,4,instructions,"[{'page_index': 0, 'viewing_time': 1822}, {'page_index': 1, 'viewing_time': 3597}, {'page_index': 2, 'viewing_time': 901}]",
371,SetA2,hihg,True,,['high'],127,,0.0-5.0-0.0,high,4241.5999999996275,SetA,SetA2,,999,69945,5,gram,,
371,SetA2,aolcis,False,,['social'],75,,0.0-5.0-0.1,idk,13329.599999999627,SetA,SetA2,,999,83277,6,gram,,
371,SetA2,feraht,False,,['father'],144,,0.0-5.0-0.2,idk,5796.0,SetA,SetA2,,999,89075,7,gram,,
371,SetA2,orem,True,,"['more', 'rome']",13,,0.0-5.0-0.3,more,2245.9000000003725,SetA,SetA2,,999,91322,8,gram,,
371,SetA2,emga,False,,['game'],133,,0.0-5.0-0.4,mega,2574.7000000011176,SetA,SetA2,,999,93899,9,gram,,
371,SetA2,uhoeng,False,,['enough'],45,,0.0-5.0-0.5,idk,10383.5,SetA,SetA2,,999,104284,10,gram,,
371,SetA2,okwr,True,,['work'],67,,0.0-5.0-0.6,work,5799.199999999255,SetA,SetA2,,999,110085,11,gram,,
371,SetA2,terhie,False,,['either'],108,,0.0-5.0-0.7,idk,3154.0,SetA,SetA2,,999,113240,12,gram,,
371,SetA2,etertb,True,,['better'],9,,0.0-5.0-0.8,better,10302.599999999627,SetA,SetA2,,999,123545,13,gram,,
371,SetA2,noitca,False,,"['atonic', 'action', 'cation']",150,,0.0-5.0-0.9,idk,5538.700000001118,SetA,SetA2,,999,129085,14,gram,,
371,SetA2,dotya,True,,['today'],89,,0.0-5.0-0.10,today,34504.699999999255,SetA,SetA2,,999,163592,15,gram,,
371,SetA2,iwhle,True,,['while'],41,,0.0-5.0-0.11,while,3916.699999999255,SetA,SetA2,,999,167510,16,gram,,
371,SetA2,rtytep,True,,['pretty'],87,,0.0-5.0-0.12,pretty,4498.9000000003725,SetA,SetA2,,999,172011,17,gram,,
371,SetA2,nthak,True,,['thank'],122,,0.0-5.0-0.13,thank,2430.5999999996275,SetA,SetA2,,999,174443,18,gram,,
371,SetA2,etarg,True,,"['great', 'grate']",38,,0.0-5.0-0.14,grate,9231.699999999257,SetA,SetA2,,999,183677,19,gram,,
371,SetA2,hrete,True,,"['ether', 'there', 'three']",5,,0.0-5.0-0.15,there,21820.400000000373,SetA,SetA2,,999,205499,20,gram,,
371,SetA2,emoc,True,,['come'],121,,0.0-5.0-0.16,come,3518.5,SetA,SetA2,,999,209019,21,gram,,
371,SetA2,tremta,True,,['matter'],90,,0.0-5.0-0.17,matter,20199.5,SetA,SetA2,,999,229221,22,gram,,
371,SetA2,oolk,True,,['look'],106,,0.0-5.0-0.18,look,1921.7999999988824,SetA,SetA2,,999,231144,23,gram,,
371,SetA2,egbni,True,,"['being', 'begin']",23,,0.0-5.0-0.19,begin,4192.9000000003725,SetA,SetA2,,999,235338,24,gram,,
371,SetA2,segiln,True,,['single'],78,,0.0-5.0-0.20,single,22525.0,SetA,SetA2,,999,257865,25,gram,,
371,SetA2,stbe,True,,['best'],91,,0.0-5.0-0.21,best,3127.5999999996275,SetA,SetA2,,999,260994,26,gram,,
371,SetA2,stmo,True,,['most'],52,,0.0-5.0-0.22,most,1635.5999999996277,SetA,SetA2,,999,262631,27,gram,,
371,SetA2,evry,True,,['very'],55,,0.0-5.0-0.23,very,3297.4000000003725,SetA,SetA2,,999,265930,28,gram,,
371,SetA2,nserop,True,,['person'],42,,0.0-5.0-0.24,person,21807.099999999627,SetA,SetA2,,999,287739,29,gram,,
371,SetA2,ayrle,True,,"['early', 'leary', 'relay', 'layer']",140,,0.0-5.0-0.25,early,17616.200000001118,SetA,SetA2,,999,305357,30,gram,,
371,SetA2,ingog,True,,['going'],26,,0.0-5.0-0.26,going,15209.900000000373,SetA,SetA2,,999,320568,31,gram,,
371,SetA2,lsitl,True,,['still'],29,,0.0-5.0-0.27,still,11705.5,SetA,SetA2,,999,332276,32,gram,,
371,SetA2,sema,True,,"['mesa', 'seam', 'same']",109,,0.0-5.0-0.28,seam,13719.099999999627,SetA,SetA2,,999,345997,33,gram,,
371,SetA2,yamn,True,,"['myna', 'many']",79,,0.0-5.0-0.29,many,13986.700000001118,SetA,SetA2,,999,359985,34,gram,,
371,SetA2,fuond,True,,['found'],68,,0.0-5.0-0.30,found,2238.5999999996275,SetA,SetA2,,999,362226,35,gram,,
371,SetA2,cplae,True,,['place'],62,,0.0-5.0-0.31,place,1740.60000000149,SetA,SetA2,,999,363968,36,gram,,
371,SetA2,lnoy,True,,"['lyon', 'only']",25,,0.0-5.0-0.32,only,10988.900000000373,SetA,SetA2,,999,374958,37,gram,,
371,SetA2,trwea,False,,['water'],101,,0.0-5.0-0.33,idk,37162.5,SetA,SetA2,,999,412123,38,gram,,
371,SetA2,tlsa,True,,"['salt', 'slat', 'last', 'lats']",88,,0.0-5.0-0.34,salt,1840.2999999988824,SetA,SetA2,,999,413965,39,gram,,
371,SetA2,lpeaes,True,,"['asleep', 'please', 'elapse']",24,,0.0-5.0-0.35,please,6440.4000000003725,SetA,SetA2,,999,420407,40,gram,,
371,SetA2,msall,True,,['small'],107,,0.0-5.0-0.36,small,1724.0,SetA,SetA2,,999,422132,41,gram,,
371,SetA2,cnaehc,True,,['chance'],141,,0.0-5.0-0.37,chance,13701.400000000373,SetA,SetA2,,999,435836,42,gram,,
371,SetA2,clloa,True,,['local'],143,,0.0-5.0-0.38,local,22056.300000000745,SetA,SetA2,,999,457894,43,gram,,
371,SetA2,rtsoy,False,,['story'],131,,0.0-5.0-0.39,idk,36828.199999999255,SetA,SetA2,,999,494723,44,gram,,
371,SetA2,sttra,False,,['start'],83,,0.0-5.0-0.40,tarts,30366.099999999627,SetA,SetA2,,999,525091,45,gram,,
371,SetA2,tpar,True,,"['part', 'trap']",118,,0.0-5.0-0.41,part,1619.4000000003723,SetA,SetA2,,999,526712,46,gram,,
371,SetA2,eevnr,True,,"['verne', 'never', 'nerve']",32,,0.0-5.0-0.42,never,9240.60000000149,SetA,SetA2,,999,535954,47,gram,,
371,SetA2,rfist,True,,['first'],11,,0.0-5.0-0.43,first,1590.0,SetA,SetA2,,999,537546,48,gram,,
371,SetA2,pguro,False,,['group'],80,,0.0-5.0-0.44,idk,20856.20000000112,SetA,SetA2,,999,558404,49,gram,,
371,SetA2,bmcoee,True,,['become'],84,,0.0-5.0-0.45,become,5594.0999999996275,SetA,SetA2,,999,564000,50,gram,,
371,SetA2,nokw,True,,['know'],28,,0.0-5.0-0.46,know,2350.5,SetA,SetA2,,999,566352,51,gram,,
371,SetA2,hcmu,True,,"['chum', 'much']",49,,0.0-5.0-0.47,much,2711.9000000003725,SetA,SetA2,,999,569066,52,gram,,
371,SetA2,alter,True,,"['alter', 'later', 'ratel', 'alert']",113,,0.0-5.0-0.48,alter,20934.900000000373,SetA,SetA2,,999,590003,53,gram,,
371,SetA2,etestr,False,,"['setter', 'street', 'tester']",135,,0.0-5.0-0.49,idk,21374.800000000745,SetA,SetA2,,999,611379,54,gram,,
371,SetA2,,,resting,,,,0.0-6.0,0,3416.0,,,<p>Great job! You have completed the first block of trials.</p><p>Take a short break before continuing to the next block.</p>,999,614797,55,html-button-response,,
371,SetA2,afret,False,,['after'],14,,0.0-7.0-0.0,idk,37821.699999999255,SetA,SetA2,,999,652620,56,gram,,
371,SetA2,ilfe,True,,"['life', 'file']",82,,0.0-7.0-0.1,file,1488.5999999996277,SetA,SetA2,,999,654111,57,gram,,
371,SetA2,aknhts,True,,['thanks'],72,,0.0-7.0-0.2,thanks,6807.0,SetA,SetA2,,999,660919,58,gram,,
371,SetA2,cuhs,True,,['such'],94,,0.0-7.0-0.3,such,2622.5,SetA,SetA2,,999,663543,59,gram,,
371,SetA2,meoh,True,,['home'],103,,0.0-7.0-0.4,home,1965.0,SetA,SetA2,,999,665510,60,gram,,
371,SetA2,eatsl,True,,"['least', 'stael', 'steal', 'stale', 'tesla', 'lates', 'slate']",134,,0.0-7.0-0.5,stale,3582.199999999255,SetA,SetA2,,999,669094,61,gram,,
371,SetA2,mekatr,False,,['market'],129,,0.0-7.0-0.6,idk,8531.800000000745,SetA,SetA2,,999,677627,62,gram,,
371,SetA2,lmifay,False,,['family'],27,,0.0-7.0-0.7,idk,4806.4000000003725,SetA,SetA2,,999,682435,63,gram,,
371,SetA2,cipelo,False,,['police'],111,,0.0-7.0-0.8,idk,36354.29999999888,SetA,SetA2,,999,718791,64,gram,,
371,SetA2,veah,True,,['have'],1,,0.0-7.0-0.9,have,6567.4000000003725,SetA,SetA2,,999,725360,65,gram,,
371,SetA2,fedrni,False,,"['finder', 'friend']",96,,0.0-7.0-0.10,idk,3363.9000000003725,SetA,SetA2,,999,728725,66,gram,,
371,SetA2,adenwt,False,,['wanted'],99,,0.0-7.0-0.11,idk,4661.5,SetA,SetA2,,999,733388,67,gram,,
371,SetA2,eplepo,True,,['people'],3,,0.0-7.0-0.12,people,1983.4000000003723,SetA,SetA2,,999,735373,68,gram,,
371,SetA2,aingkm,True,,['making'],51,,0.0-7.0-0.13,making,3414.5,SetA,SetA2,,999,738790,69,gram,,
371,SetA2,eubmrn,False,,['number'],33,,0.0-7.0-0.14,idk,6967.4000000003725,SetA,SetA2,,999,745758,70,gram,,
371,SetA2,gritny,False,,['trying'],60,,0.0-7.0-0.15,idk,4032.599999999627,SetA,SetA2,,999,749792,71,gram,,
371,SetA2,fromer,True,,"['former', 'reform']",132,,0.0-7.0-0.16,former,3123.39999999851,SetA,SetA2,,999,752917,72,gram,,
371,SetA2,ndif,True,,['find'],124,,0.0-7.0-0.17,find,3166.4000000003725,SetA,SetA2,,999,756085,73,gram,,
371,SetA2,elik,True,,['like'],10,,0.0-7.0-0.18,like,1498.5999999996277,SetA,SetA2,,999,757585,74,gram,,
371,SetA2,icums,False,,['music'],95,,0.0-7.0-0.19,idk,12566.199999999257,SetA,SetA2,,999,770153,75,gram,,
371,SetA2,mite,True,,"['mite', 'emit', 'item', 'time']",16,,0.0-7.0-0.20,time,1861.60000000149,SetA,SetA2,,999,772017,76,gram,,
371,SetA2,rehe,True,,['here'],61,,0.0-7.0-0.21,here,1655.9000000003723,SetA,SetA2,,999,773674,77,gram,,
371,SetA2,iyasgn,False,,['saying'],93,,0.0-7.0-0.22,idk,9126.299999998882,SetA,SetA2,,999,782802,78,gram,,
371,SetA2,otrhe,False,,"['other', 'throe']",8,,0.0-7.0-0.23,idk,5756.0,SetA,SetA2,,999,788559,79,gram,,
371,SetA2,ehac,True,,"['each', 'ache']",142,,0.0-7.0-0.24,each,7676.5999999996275,SetA,SetA2,,999,796237,80,gram,,
371,SetA2,vlinig,False,,['living'],123,,0.0-7.0-0.25,idk,7271.89999999851,SetA,SetA2,,999,803511,81,gram,,
371,SetA2,ongl,True,,['long'],100,,0.0-7.0-0.26,long,1487.5,SetA,SetA2,,999,805000,82,gram,,
371,SetA2,nihkt,True,,['think'],17,,0.0-7.0-0.27,think,2466.9000000003725,SetA,SetA2,,999,807468,83,gram,,
371,SetA2,ocsloh,False,,['school'],21,,0.0-7.0-0.28,idk,29061.599999999627,SetA,SetA2,,999,836531,84,gram,,
371,SetA2,nwat,True,,['want'],43,,0.0-7.0-0.29,want,2484.699999999255,SetA,SetA2,,999,839017,85,gram,,
371,SetA2,ldonno,False,,['london'],138,,0.0-7.0-0.30,idk,4428.5,SetA,SetA2,,999,843447,86,gram,,
371,SetA2,uhseo,False,,['house'],59,,0.0-7.0-0.31,idk,2271.39999999851,SetA,SetA2,,999,845720,87,gram,,
371,SetA2,huhtog,False,,['though'],54,,0.0-7.0-0.32,idk,4105.5999999996275,SetA,SetA2,,999,849827,88,gram,,
371,SetA2,aosrcs,False,,['across'],147,,0.0-7.0-0.33,idk,6157.5,SetA,SetA2,,999,855986,89,gram,,
371,SetA2,wlli,True,,['will'],4,,0.0-7.0-0.34,will,4066.2000000011176,SetA,SetA2,,999,860054,90,gram,,
371,SetA2,ieffco,False,,['office'],81,,0.0-7.0-0.35,idk,3162.5,SetA,SetA2,,999,863218,91,gram,,
371,SetA2,hgint,False,,"['thing', 'night']",56,,0.0-7.0-0.36,idk,3907.199999999255,SetA,SetA2,,999,867126,92,gram,,
371,SetA2,ekma,True,,['make'],34,,0.0-7.0-0.37,make,1781.5999999996277,SetA,SetA2,,999,868910,93,gram,,
371,SetA2,rtorpe,False,,"['report', 'porter']",120,,0.0-7.0-0.38,idk,2156.10000000149,SetA,SetA2,,999,871067,94,gram,,
371,SetA2,usjt,True,,['just'],7,,0.0-7.0-0.39,just,1958.2000000011176,SetA,SetA2,,999,873027,95,gram,,
371,SetA2,asemn,True,,"['manse', 'means', 'manes', 'mensa']",137,,0.0-7.0-0.40,means,9816.599999999627,SetA,SetA2,,999,882845,96,gram,,
371,SetA2,sanseo,False,,['season'],57,,0.0-7.0-0.41,idk,9167.0,SetA,SetA2,,999,892014,97,gram,,
371,SetA2,utabo,True,,['about'],2,,0.0-7.0-0.42,about,20743.900000000373,SetA,SetA2,,999,912759,98,gram,,
371,SetA2,sitem,True,,"['smite', 'times', 'metis']",86,,0.0-7.0-0.43,times,4182.800000000745,SetA,SetA2,,999,916944,99,gram,,
371,SetA2,htrig,True,,"['girth', 'right']",20,,0.0-7.0-0.44,right,3368.89999999851,SetA,SetA2,,999,920314,100,gram,,
371,SetA2,edne,True,,"['eden', 'need']",64,,0.0-7.0-0.45,need,3977.400000000373,SetA,SetA2,,999,924293,101,gram,,
371,SetA2,hwtei,False,,"['withe', 'white']",104,,0.0-7.0-0.46,idk,24330.20000000112,SetA,SetA2,,999,948625,102,gram,,
371,SetA2,htne,True,,['then'],37,,0.0-7.0-0.47,then,27914.599999999627,SetA,SetA2,,999,976541,103,gram,,
371,SetA2,itonp,True,,"['pinto', 'piton', 'point', 'pinot']",92,,0.0-7.0-0.48,point,7454.200000001118,SetA,SetA2,,999,984005,104,gram,,
371,SetA2,oyemn,False,,['money'],74,,0.0-7.0-0.49,idk,7206.800000000745,SetA,SetA2,,999,991219,105,gram,,
371,SetA2,,,resting,,,,0.0-8.0,0,3207.0,,,<p>Great job! You have completed the second block of trials.</p><p>Take a short break before continuing to the final block.</p>,999,994430,106,html-button-response,,
371,SetA2,eudrn,False,,['under'],53,,0.0-9.0-0.0,idk,4377.0999999996275,SetA,SetA2,,999,998810,107,gram,,
371,SetA2,eenv,True,,"['even', 'neve']",58,,0.0-9.0-0.1,even,3763.800000000745,SetA,SetA2,,999,1002577,108,gram,,
371,SetA2,esdu,True,,"['duse', 'used']",112,,0.0-9.0-0.2,used,19460.0,SetA,SetA2,,999,1022042,109,gram,,
371,SetA2,tihgn,True,,"['thing', 'night']",77,,0.0-9.0-0.3,thing,3280.9000000003725,SetA,SetA2,,999,1025324,110,gram,,
371,SetA2,msut,True,,"['must', 'smut', 'tums']",145,,0.0-9.0-0.4,must,4663.800000000745,SetA,SetA2,,999,1029990,111,gram,,
371,SetA2,odwn,True,,['down'],85,,0.0-9.0-0.5,down,3146.699999999255,SetA,SetA2,,999,1033139,112,gram,,
371,SetA2,osrecu,False,,"['crouse', 'source', 'cerous', 'course']",66,,0.0-9.0-0.6,idk,26257.0,SetA,SetA2,,999,1059398,113,gram,,
371,SetA2,gvei,True,,['give'],136,,0.0-9.0-0.7,give,1863.0,SetA,SetA2,,999,1061263,114,gram,,
371,SetA2,noyug,True,,['young'],146,,0.0-9.0-0.8,young,2614.300000000745,SetA,SetA2,,999,1063878,115,gram,,
371,SetA2,ahterr,False,,['rather'],114,,0.0-9.0-0.9,idk,48266.800000000745,SetA,SetA2,,999,1112148,116,gram,,
371,SetA2,reessi,False,,['series'],102,,0.0-9.0-0.10,idk,11725.900000000373,SetA,SetA2,,999,1123875,117,gram,,
371,SetA2,eeyvr,True,,"['every', 'veery']",44,,0.0-9.0-0.11,every,3583.5999999996275,SetA,SetA2,,999,1127461,118,gram,,
371,SetA2,bcak,True,,['back'],40,,0.0-9.0-0.12,back,2231.39999999851,SetA,SetA2,,999,1129694,119,gram,,
371,SetA2,bsdea,False,,"['based', 'beads']",110,,0.0-9.0-0.13,idk,9594.800000000743,SetA,SetA2,,999,1139290,120,gram,,
371,SetA2,wohel,True,,['whole'],128,,0.0-9.0-0.14,whole,3458.89999999851,SetA,SetA2,,999,1142750,121,gram,,
371,SetA2,rvoe,True,,['over'],31,,0.0-9.0-0.15,over,25811.0,SetA,SetA2,,999,1168563,122,gram,,
371,SetA2,doescn,False,,['second'],30,,0.0-9.0-0.16,idk,3704.300000000745,SetA,SetA2,,999,1172269,123,gram,,
371,SetA2,teehr,False,,"['ether', 'there', 'three']",47,,0.0-9.0-0.17,idk,6644.699999999255,SetA,SetA2,,999,1178915,124,gram,,
371,SetA2,igsthn,True,,['things'],18,,0.0-9.0-0.18,things,3590.5,SetA,SetA2,,999,1182507,125,gram,,
371,SetA2,ktea,True,,"['teak', 'take']",76,,0.0-9.0-0.19,take,4048.0,SetA,SetA2,,999,1186557,126,gram,,
371,SetA2,mseo,True,,['some'],19,,0.0-9.0-0.20,some,5761.0999999996275,SetA,SetA2,,999,1192319,127,gram,,
371,SetA2,hswo,True,,['show'],148,,0.0-9.0-0.21,show,19229.0,SetA,SetA2,,999,1211551,128,gram,,
371,SetA2,aery,True,,['year'],70,,0.0-9.0-0.22,year,6842.800000000745,SetA,SetA2,,999,1218395,129,gram,,
371,SetA2,senora,False,,"['senora', 'reason']",117,,0.0-9.0-0.23,idk,15708.800000000743,SetA,SetA2,,999,1234106,130,gram,,
371,SetA2,ahtelh,False,,['health'],69,,0.0-9.0-0.24,idk,6210.5999999996275,SetA,SetA2,,999,1240318,131,gram,,
371,SetA2,emad,True,,"['edam', 'made', 'dame', 'mead']",73,,0.0-9.0-0.25,made,1451.7999999988824,SetA,SetA2,,999,1241771,132,gram,,
371,SetA2,loev,True,,"['vole', 'love']",97,,0.0-9.0-0.26,love,1244.0,SetA,SetA2,,999,1243016,133,gram,,
371,SetA2,gehnca,False,,['change'],48,,0.0-9.0-0.27,idk,2866.0999999996275,SetA,SetA2,,999,1245884,134,gram,,
371,SetA2,runoda,False,,"['arundo', 'around']",6,,0.0-9.0-0.28,idk,3340.9000000003725,SetA,SetA2,,999,1249226,135,gram,,
371,SetA2,thmgi,True,,['might'],71,,0.0-9.0-0.29,might,2746.0999999996275,SetA,SetA2,,999,1251974,136,gram,,
371,SetA2,rpoew,False,,['power'],98,,0.0-9.0-0.30,idk,33267.59999999963,SetA,SetA2,,999,1285243,137,gram,,
371,SetA2,lettil,False,,['little'],15,,0.0-9.0-0.31,idk,6851.800000000745,SetA,SetA2,,999,1292096,138,gram,,
371,SetA2,ehpl,True,,['help'],130,,0.0-9.0-0.32,help,1929.4000000003723,SetA,SetA2,,999,1294027,139,gram,,
371,SetA2,lpcuib,True,,['public'],36,,0.0-9.0-0.33,public,5784.699999999255,SetA,SetA2,,999,1299814,140,gram,,
371,SetA2,gdoo,True,,['good'],22,,0.0-9.0-0.34,good,2146.199999999255,SetA,SetA2,,999,1301961,141,gram,,
371,SetA2,xtne,True,,['next'],139,,0.0-9.0-0.35,next,4404.200000001118,SetA,SetA2,,999,1306367,142,gram,,
371,SetA2,tsmyes,False,,['system'],39,,0.0-9.0-0.36,idk,7472.0999999996275,SetA,SetA2,,999,1313841,143,gram,,
371,SetA2,eastt,True,,"['state', 'taste', 'testa']",50,,0.0-9.0-0.37,state,24548.900000000373,SetA,SetA2,,999,1338392,144,gram,,
371,SetA2,etunid,False,,"['united', 'untied']",63,,0.0-9.0-0.38,idk,26118.699999999255,SetA,SetA2,,999,1364513,145,gram,,
371,SetA2,gaani,True,,['again'],65,,0.0-9.0-0.39,again,11272.800000000743,SetA,SetA2,,999,1375787,146,gram,,
371,SetA2,ebhdin,False,,['behind'],126,,0.0-9.0-0.40,idk,6594.199999999255,SetA,SetA2,,999,1382383,147,gram,,
371,SetA2,ldowr,False,,['world'],35,,0.0-9.0-0.41,idk,9338.5,SetA,SetA2,,999,1391723,148,gram,,
371,SetA2,tyarp,True,,['party'],119,,0.0-9.0-0.42,party,4184.5,SetA,SetA2,,999,1395909,149,gram,,
371,SetA2,ohtb,True,,['both'],115,,0.0-9.0-0.43,both,14444.599999999627,SetA,SetA2,,999,1410355,150,gram,,
371,SetA2,fuurte,False,,['future'],105,,0.0-9.0-0.44,idk,9592.5,SetA,SetA2,,999,1419949,151,gram,,
371,SetA2,awylsa,True,,['always'],12,,0.0-9.0-0.45,always,9598.60000000149,SetA,SetA2,,999,1429550,152,gram,,
371,SetA2,odrer,True,,['order'],116,,0.0-9.0-0.46,order,3989.900000000373,SetA,SetA2,,999,1433542,153,gram,,
371,SetA2,edvoi,False,,['video'],149,,0.0-9.0-0.47,idk,52198.300000000745,SetA,SetA2,,999,1485742,154,gram,,
371,SetA2,lkcab,True,,['black'],125,,0.0-9.0-0.48,black,33894.09999999963,SetA,SetA2,,999,1519638,155,gram,,
371,SetA2,elwl,True,,['well'],46,,0.0-9.0-0.49,well,1867.699999999255,SetA,SetA2,,999,1521508,156,gram,,
371,SetA2,,,,,,,0.0-11.0,enter,20723.0,,,<p>Thank you for participating! You scored 64.67 percent correct!</p>,999,1612067,158,html-keyboard-response,,
371,SetA2,,,,,,"[{""event"":""blur"",""trial"":15,""time"":133275},{""event"":""focus"",""trial"":15,""time"":141222},{""event"":""blur"",""trial"":15,""time"":144589},{""event"":""focus"",""trial"":15,""time"":146888},{""event"":""blur"",""trial"":15,""time"":148112},{""event"":""focus"",""trial"":15,""time"":161082},{""event"":""blur"",""trial"":20,""time"":190809},{""event"":""focus"",""trial"":20,""time"":199766},{""event"":""blur"",""trial"":22,""time"":217676},{""event"":""focus"",""trial"":22,""time"":221136},{""event"":""blur"",""trial"":22,""time"":224231},{""event"":""focus"",""trial"":22,""time"":227532},{""event"":""blur"",""trial"":25,""time"":244235},{""event"":""focus"",""trial"":25,""time"":250087},{""event"":""blur"",""trial"":29,""time"":278312},{""event"":""focus"",""trial"":29,""time"":284563},{""event"":""blur"",""trial"":30,""time"":297526},{""event"":""focus"",""trial"":30,""time"":302786},{""event"":""blur"",""trial"":31,""time"":313153},{""event"":""focus"",""trial"":31,""time"":317767},{""event"":""blur"",""trial"":42,""time"":428082},{""event"":""focus"",""trial"":42,""time"":428256},{""event"":""blur"",""trial"":54,""time"":609183},{""event"":""focus"",""trial"":54,""time"":609353},{""event"":""blur"",""trial"":80,""time"":795559},{""event"":""focus"",""trial"":80,""time"":795735},{""event"":""blur"",""trial"":103,""time"":976203},{""event"":""focus"",""trial"":103,""time"":976385},{""event"":""blur"",""trial"":124,""time"":1175535},{""event"":""focus"",""trial"":124,""time"":1175710},{""event"":""blur"",""trial"":145,""time"":1356683},{""event"":""focus"",""trial"":145,""time"":1356861},{""event"":""blur"",""trial"":157,""time"":1526186},{""event"":""focus"",""trial"":157,""time"":1529934},{""event"":""blur"",""trial"":157,""time"":1537046},{""event"":""focus"",""trial"":157,""time"":1537046},{""event"":""blur"",""trial"":157,""time"":1537046},{""event"":""focus"",""trial"":157,""time"":1542775},{""event"":""blur"",""trial"":157,""time"":1545174},{""event"":""focus"",""trial"":157,""time"":1545361},{""event"":""blur"",""trial"":157,""time"":1547588},{""event"":""focus"",""trial"":157,""time"":1548844},{""event"":""blur"",""trial"":157,""time"":1553434},{""event"":""focus"",""trial"":157,""time"":1555522},{""event"":""blur"",""trial"":157,""time"":1558396},{""event"":""focus"",""trial"":157,""time"":1561031},{""event"":""blur"",""trial"":157,""time"":1564249},{""event"":""focus"",""trial"":157,""time"":1567327},{""event"":""blur"",""trial"":157,""time"":1569641},{""event"":""focus"",""trial"":157,""time"":1573111},{""event"":""blur"",""trial"":157,""time"":1576076},{""event"":""focus"",""trial"":157,""time"":1580186},{""event"":""blur"",""trial"":157,""time"":1582360},{""event"":""focus"",""trial"":157,""time"":1585046},{""event"":""blur"",""trial"":158,""time"":1600627},{""event"":""focus"",""trial"":158,""time"":1606966},{""event"":""blur"",""trial"":159,""time"":1617195},{""event"":""focus"",""trial"":159,""time"":1620330}]",0.0-12.0,,9641.0,,,,999,1621710,159,instructions,"[{'page_index': 0, 'viewing_time': 1894}, {'page_index': 1, 'viewing_time': 7747}]",
385,SetC2,,,,,,,0.0-0.0,,128140.0,,,,999,128153,0,instructions,"[{'page_index': 0, 'viewing_time': 18265}, {'page_index': 1, 'viewing_time': 25318}, {'page_index': 2, 'viewing_time': 29434}, {'page_index': 3, 'viewing_time': 22085}, {'page_index': 4, 'viewing_time': 20685}, {'page_index': 5, 'viewing_time': 12351}]",
385,SetC2,,,consent,,,,0.0-1.0,0,3335.0,,,"<p>By pressing continue below, I understand that I am consenting to participation in this research.</p>",999,131493,1,html-button-response,,
385,SetC2,,,,,,,0.0-2.0,,64249.0,,,,999,195744,2,instructions,"[{'page_index': 0, 'viewing_time': 3458}, {'page_index': 1, 'viewing_time': 3750}, {'page_index': 2, 'viewing_time': 12931}, {'page_index': 3, 'viewing_time': 8410}, {'page_index': 4, 'viewing_time': 7897}, {'page_index': 5, 'viewing_time': 12265}, {'page_index': 6, 'viewing_time': 7284}, {'page_index': 7, 'viewing_time': 6153}, {'page_index': 8, 'viewing_time': 2100}]",
385,SetC2,rapctiec,False,,practice,practice,,0.0-3.0,practice,25136.70000000001,practice,practice,,999,220887,3,gram,,
385,SetC2,,,,,,,0.0-4.0,,17318.0,,,,999,238208,4,instructions,"[{'page_index': 0, 'viewing_time': 2743}, {'page_index': 1, 'viewing_time': 11474}, {'page_index': 2, 'viewing_time': 3100}]",
385,SetC2,ceditr,True,,"['credit', 'direct']",339,,0.0-5.0-0.0,direct,34949.69999999998,SetC,SetC2,,999,273164,5,gram,,
385,SetC2,ourdn,True,,['round'],344,,0.0-5.0-0.1,round,19929.800000000047,SetC,SetC2,,999,293097,6,gram,,
385,SetC2,onciem,False,,['income'],366,,0.0-5.0-0.2,idk,174696.79999999993,SetC,SetC2,,999,467796,7,gram,,
385,SetC2,oemv,True,,['move'],316,,0.0-5.0-0.3,move,8706.099999999977,SetC,SetC2,,999,476506,8,gram,,
385,SetC2,tteerl,True,,['letter'],381,,0.0-5.0-0.4,letter,41370.90000000002,SetC,SetC2,,999,517880,9,gram,,
385,SetC2,ertm,True,,['term'],400,,0.0-5.0-0.5,term,30725.70000000007,SetC,SetC2,,999,548609,10,gram,,
385,SetC2,nunala,True,,['annual'],393,,0.0-5.0-0.6,annual,212868.5,SetC,SetC2,,999,761480,11,gram,,
385,SetC2,douns,True,,['sound'],338,,0.0-5.0-0.7,sound,16459.899999999907,SetC,SetC2,,999,777943,12,gram,,
385,SetC2,fertof,False,,['effort'],429,,0.0-5.0-0.8,forfet,170305.70000000007,SetC,SetC2,,999,948251,13,gram,,
385,SetC2,tocs,False,,"['scot', 'cost']",391,,0.0-5.0-0.9,cots,11104.0,SetC,SetC2,,999,959358,14,gram,,
385,SetC2,lucb,True,,['club'],433,,0.0-5.0-0.10,club,8324.699999999953,SetC,SetC2,,999,967685,15,gram,,
385,SetC2,osgn,False,,"['snog', 'song']",367,,0.0-5.0-0.11,nogs,63494.10000000009,SetC,SetC2,,999,1031182,16,gram,,
385,SetC2,,,,,,"[{""event"":""blur"",""trial"":7,""time"":463428},{""event"":""focus"",""trial"":7,""time"":463432},{""event"":""blur"",""trial"":11,""time"":649405},{""event"":""focus"",""trial"":11,""time"":649405},{""event"":""blur"",""trial"":13,""time"":868553},{""event"":""focus"",""trial"":13,""time"":868554}]",0.0-5.0-0.12,,,,,,999,1048555,17,gram,,
391,SetB1,,,,,,,0.0-0.0,,48770.0,,,,999,48798,0,instructions,"[{'page_index': 0, 'viewing_time': 3940}, {'page_index': 1, 'viewing_time': 2499}, {'page_index': 2, 'viewing_time': 1209}, {'page_index': 3, 'viewing_time': 346}, {'page_index': 2, 'viewing_time': 27810}, {'page_index': 3, 'viewing_time': 10095}, {'page_index': 4, 'viewing_time': 1639}, {'page_index': 5, 'viewing_time': 1233}]",
391,SetB1,,,consent,,,,0.0-1.0,0,3140.0,,,"<p>By pressing continue below, I understand that I am consenting to participation in this research.</p>",999,51941,1,html-button-response,,
391,SetB1,,,,,,,0.0-2.0,,46955.0,,,,999,98898,2,instructions,"[{'page_index': 0, 'viewing_time': 3025}, {'page_index': 1, 'viewing_time': 4112}, {'page_index': 2, 'viewing_time': 1788}, {'page_index': 3, 'viewing_time': 5783}, {'page_index': 4, 'viewing_time': 4176}, {'page_index': 5, 'viewing_time': 6858}, {'page_index': 6, 'viewing_time': 4813}, {'page_index': 7, 'viewing_time': 14660}, {'page_index': 8, 'viewing_time': 1739}]",
391,SetB1,rapctiec,False,,practice,practice,,0.0-3.0,practice,4913.0,practice,practice,,999,103815,3,gram,,
391,SetB1,,,,,,,0.0-4.0,,8587.0,,,,999,112403,4,instructions,"[{'page_index': 0, 'viewing_time': 2845}, {'page_index': 1, 'viewing_time': 4148}, {'page_index': 2, 'viewing_time': 1593}]",
391,SetB1,vobae,True,,['above'],299,,0.0-5.0-0.0,above,9341.099999999627,SetB,SetB1,,999,121748,5,gram,,
391,SetB1,slot,True,,"['slot', 'lost']",298,,0.0-5.0-0.1,slot,3936.7999999998137,SetB,SetB1,,999,125687,6,gram,,
391,SetB1,efel,True,,"['feel', 'flee']",154,,0.0-5.0-0.2,feel,4207.4000000003725,SetB,SetB1,,999,129896,7,gram,,
391,SetB1,harde,True,,['heard'],254,,0.0-5.0-0.3,heard,3447.699999999255,SetB,SetB1,,999,133345,8,gram,,
391,SetB1,rtohn,True,,"['north', 'thorn']",203,,0.0-5.0-0.4,north,3337.5,SetB,SetB1,,999,136684,9,gram,,
391,SetB1,ewrsna,False,,['answer'],222,,0.0-5.0-0.5,idk,15397.099999999627,SetB,SetB1,,999,152083,10,gram,,
391,SetB1,sclas,True,,['class'],188,,0.0-5.0-0.6,class,2805.0,SetB,SetB1,,999,154890,11,gram,,
391,SetB1,adhe,True,,['head'],232,,0.0-5.0-0.7,head,1684.7999999998135,SetB,SetB1,,999,156576,12,gram,,
391,SetB1,othrs,False,,"['horst', 'short']",218,,0.0-5.0-0.8,idk,10588.799999999814,SetB,SetB1,,999,167166,13,gram,,
391,SetB1,evfi,True,,['five'],253,,0.0-5.0-0.9,five,1912.0999999996277,SetB,SetB1,,999,169079,14,gram,,
391,SetB1,yict,True,,['city'],181,,0.0-5.0-0.10,city,3113.2000000001863,SetB,SetB1,,999,172194,15,gram,,
391,SetB1,amen,True,,"['amen', 'mean', 'name', 'mane']",178,,0.0-5.0-0.11,name,3667.699999999255,SetB,SetB1,,999,175863,16,gram,,
391,SetB1,ceas,False,,['case'],199,,0.0-5.0-0.12,idk,9168.799999999814,SetB,SetB1,,999,185033,17,gram,,
391,SetB1,lnoag,True,,"['along', 'logan']",182,,0.0-5.0-0.13,along,3572.7999999998137,SetB,SetB1,,999,188607,18,gram,,
391,SetB1,entudr,False,,['turned'],261,,0.0-5.0-0.14,idk,11908.10000000056,SetB,SetB1,,999,200516,19,gram,,
391,SetB1,spilme,False,,['simple'],270,,0.0-5.0-0.15,idk,10251.0,SetB,SetB1,,999,210769,20,gram,,
391,SetB1,ouctr,False,,['court'],161,,0.0-5.0-0.16,idk,7985.700000000186,SetB,SetB1,,999,218756,21,gram,,
391,SetB1,deorrc,True,,['record'],171,,0.0-5.0-0.17,record,6404.5999999996275,SetB,SetB1,,999,225162,22,gram,,
391,SetB1,egtrfo,True,,['forget'],288,,0.0-5.0-0.18,forget,2711.600000000559,SetB,SetB1,,999,227875,23,gram,,
391,SetB1,crchuh,False,,['church'],231,,0.0-5.0-0.19,idk,11682.900000000373,SetB,SetB1,,999,239559,24,gram,,
391,SetB1,nietsl,True,,"['enlist', 'tinsel', 'listen', 'silent']",291,,0.0-5.0-0.20,silent,3428.7000000001863,SetB,SetB1,,999,242989,25,gram,,
391,SetB1,greeny,False,,['energy'],162,,0.0-5.0-0.21,greeny,5330.799999999814,SetB,SetB1,,999,248321,26,gram,,
391,SetB1,happne,True,,['happen'],201,,0.0-5.0-0.22,happen,2009.7000000001865,SetB,SetB1,,999,250332,27,gram,,
391,SetB1,ospt,True,,"['spot', 'stop', 'post']",268,,0.0-5.0-0.23,stop,3530.899999999441,SetB,SetB1,,999,253864,28,gram,,
391,SetB1,aemt,True,,"['tame', 'meat', 'team', 'mate']",157,,0.0-5.0-0.24,tame,2279.699999999255,SetB,SetB1,,999,256145,29,gram,,
391,SetB1,eopn,True,,['open'],244,,0.0-5.0-0.25,open,1521.5999999996277,SetB,SetB1,,999,257668,30,gram,,
391,SetB1,rgdoun,True,,['ground'],237,,0.0-5.0-0.26,ground,2097.0999999996275,SetB,SetB1,,999,259766,31,gram,,
391,SetB1,eacus,True,,"['cause', 'sauce']",197,,0.0-5.0-0.27,cause,3159.399999999441,SetB,SetB1,,999,262927,32,gram,,
391,SetB1,etll,True,,['tell'],223,,0.0-5.0-0.28,tell,1470.7999999998135,SetB,SetB1,,999,264399,33,gram,,
391,SetB1,siuse,True,,['issue'],287,,0.0-5.0-0.29,issue,12817.300000000743,SetB,SetB1,,999,277217,34,gram,,
391,SetB1,bador,False,,"['broad', 'board', 'dobra']",278,,0.0-5.0-0.30,idk,4665.200000000186,SetB,SetB1,,999,281884,35,gram,,
